File: PROJECT/FTIR Merged/Copper A.dat
Wavelength [nm]	Wavenumbers [1/cm]	Copper Ambient - averaged	Copper 1 7 days - averaged	Copper 2 7 days - averaged	Copper 1 14 days - averaged	Copper 2 14 days - averaged	Copper 1 17 days - averaged	Copper 2 17 days - averaged	Copper 1 21 days - averaged	Copper 2 21 days - averaged	Copper 1 26 days - averaged	Copper 2 26 days - averaged	Copper 1 28 days - averaged	Copper 2 28 days - averaged	Copper 1 38 days - averaged	Copper 2 38 days - averaged	Copper 1 40 days - averaged	Copper 2 40 days - averaged	Copper 1 42 days - averaged	Copper 2 42 days - averaged
899.63	11115.68	0.189	0.1846	0.1836	0.1852	0.1847	0.1937	0.1877	0.2031	0.2021	0.1784	0.183	0.1844	0.1872	0.1719	0.1749	0.172	0.1736	0.177	0.1811
910.237	10986.15	0.183	0.1767	0.1766	0.1789	0.1801	0.1847	0.1816	0.1927	0.1913	0.1734	0.1762	0.178	0.1803	0.167	0.1721	0.1714	0.1713	0.1716	0.1752
920.843	10859.61	0.2053	0.1981	0.1977	0.2028	0.2017	0.2082	0.2053	0.2115	0.2114	0.1953	0.1992	0.1973	0.2001	0.1916	0.1932	0.1938	0.1943	0.1947	0.1971
931.45	10735.95	0.2174	0.212	0.2104	0.2157	0.216	0.2205	0.218	0.2205	0.2216	0.2099	0.2122	0.2097	0.2119	0.2048	0.2055	0.2072	0.2062	0.2071	0.2099
942.056	10615.08	0.2207	0.215	0.2142	0.2203	0.2209	0.2236	0.2211	0.2229	0.2234	0.2138	0.2159	0.2139	0.2156	0.2075	0.2077	0.2103	0.2092	0.2105	0.2122
952.663	10496.89	0.2204	0.2139	0.2136	0.2195	0.2195	0.2217	0.2196	0.2215	0.2227	0.2128	0.2145	0.2127	0.2144	0.2084	0.2093	0.2106	0.2107	0.21	0.2114
963.269	10381.31	0.2376	0.2311	0.2312	0.2365	0.2371	0.2391	0.2379	0.2413	0.2419	0.2294	0.2318	0.2286	0.2308	0.2263	0.2265	0.2271	0.2278	0.2272	0.2286
973.876	10268.25	0.2313	0.2254	0.2251	0.2312	0.231	0.2329	0.2317	0.2361	0.2362	0.2236	0.2253	0.2227	0.2243	0.2189	0.2186	0.2202	0.2203	0.2204	0.2212
984.483	10157.62	0.1926	0.1871	0.1871	0.194	0.1939	0.1942	0.1934	0.1976	0.1973	0.1859	0.1877	0.1858	0.1876	0.1823	0.1822	0.1828	0.1832	0.1827	0.1831
995.089	10049.35	0.1841	0.1778	0.1778	0.1857	0.1855	0.1852	0.1841	0.1896	0.1894	0.1772	0.1783	0.1778	0.1792	0.1752	0.175	0.1764	0.1772	0.1755	0.1759
1005.696	9943.37	0.1848	0.1782	0.1783	0.1867	0.1866	0.1859	0.1855	0.1926	0.1917	0.1773	0.1787	0.1783	0.1794	0.1772	0.1772	0.1786	0.179	0.1778	0.1779
1016.302	9839.59	0.183	0.1771	0.1775	0.1878	0.1877	0.1851	0.1844	0.1925	0.1917	0.1763	0.1775	0.1769	0.1784	0.1743	0.174	0.1761	0.1772	0.1765	0.1766
1026.909	9737.96	0.1883	0.1832	0.1835	0.1927	0.1923	0.1905	0.19	0.1982	0.1968	0.1826	0.1834	0.1831	0.1844	0.1796	0.1788	0.1805	0.1812	0.1797	0.1796
1037.515	9638.41	0.1832	0.1783	0.179	0.1881	0.1876	0.1858	0.1853	0.1945	0.1931	0.1783	0.179	0.18	0.1807	0.1763	0.1756	0.177	0.1781	0.1756	0.1755
1048.122	9540.87	0.1686	0.1642	0.1651	0.1736	0.1733	0.1713	0.1711	0.1804	0.179	0.1637	0.1648	0.1649	0.1661	0.1641	0.1641	0.1647	0.1659	0.1635	0.1636
1058.729	9445.29	0.1746	0.1695	0.1703	0.1788	0.1783	0.1767	0.1764	0.1894	0.1868	0.1687	0.1702	0.1696	0.1704	0.1679	0.1679	0.1689	0.1708	0.168	0.1684
1069.335	9351.61	0.1761	0.1707	0.171	0.1796	0.1792	0.1774	0.1768	0.1896	0.1869	0.1704	0.1717	0.1703	0.1712	0.1674	0.1674	0.168	0.1699	0.167	0.1678
1079.942	9259.76	0.1752	0.1692	0.1697	0.1784	0.1783	0.1758	0.1755	0.1821	0.1817	0.1699	0.1715	0.1693	0.1711	0.1666	0.167	0.1673	0.1694	0.1659	0.1666
1090.548	9169.7	0.1687	0.1619	0.1623	0.1707	0.1707	0.1686	0.1686	0.1731	0.1735	0.1626	0.1639	0.1624	0.1641	0.1616	0.1621	0.1622	0.1642	0.1608	0.1613
1101.155	9081.38	0.1604	0.1535	0.1539	0.1617	0.1616	0.1603	0.1604	0.1637	0.1646	0.1538	0.1552	0.1525	0.1546	0.1532	0.1542	0.1544	0.1568	0.1531	0.1544
1111.761	8994.74	0.1569	0.1509	0.1514	0.1594	0.1594	0.1576	0.1577	0.1606	0.1617	0.1517	0.1536	0.15	0.1524	0.1493	0.1507	0.1505	0.1537	0.1498	0.1515
1122.368	8909.73	0.1578	0.152	0.1524	0.1612	0.1617	0.1587	0.1592	0.1633	0.1642	0.1541	0.1564	0.1532	0.1562	0.1515	0.1536	0.1522	0.1563	0.1512	0.1536
1132.975	8826.32	0.1744	0.1676	0.1678	0.1767	0.1773	0.1745	0.1751	0.184	0.1835	0.1702	0.1723	0.1707	0.1728	0.1693	0.1712	0.1698	0.1739	0.1682	0.1706
1143.581	8744.46	0.2036	0.1959	0.196	0.2042	0.2048	0.2037	0.204	0.2133	0.2129	0.1978	0.1997	0.1978	0.2003	0.1974	0.1993	0.1981	0.2024	0.1967	0.1992
1154.188	8664.1	0.2435	0.2367	0.2365	0.2447	0.2452	0.2446	0.2449	0.2507	0.2516	0.2385	0.2405	0.2371	0.24	0.2354	0.2371	0.2366	0.2407	0.2345	0.237
1164.794	8585.21	0.242	0.2354	0.2353	0.2446	0.245	0.2434	0.2438	0.2482	0.2494	0.2387	0.2406	0.2371	0.24	0.2339	0.2353	0.2349	0.2389	0.2326	0.2348
1175.401	8507.74	0.2009	0.1948	0.1948	0.2039	0.2047	0.2027	0.2034	0.2072	0.2087	0.1992	0.2012	0.1984	0.2015	0.1968	0.199	0.1968	0.2015	0.1944	0.1971
1186.007	8431.65	0.1752	0.1687	0.1688	0.1766	0.1775	0.176	0.1768	0.18	0.1819	0.1726	0.1744	0.1714	0.1746	0.1714	0.1738	0.1721	0.1769	0.17	0.1726
1196.614	8356.91	0.1737	0.1681	0.1681	0.1746	0.1756	0.1742	0.1751	0.1781	0.1798	0.1707	0.1723	0.1687	0.1717	0.1681	0.1704	0.1693	0.1739	0.1678	0.1703
1207.22	8283.49	0.186	0.1808	0.1809	0.1878	0.1889	0.187	0.1877	0.1917	0.193	0.184	0.1855	0.1822	0.1849	0.1802	0.1821	0.1812	0.1856	0.1796	0.1819
1217.827	8211.35	0.19	0.1841	0.1839	0.1914	0.1925	0.1905	0.1913	0.1977	0.1984	0.1876	0.1889	0.187	0.1895	0.1853	0.1872	0.1854	0.1899	0.1834	0.1857
1228.434	8140.45	0.1979	0.1905	0.1904	0.1976	0.1987	0.1974	0.1983	0.2054	0.2059	0.1934	0.1948	0.1933	0.1962	0.1926	0.1945	0.1931	0.1979	0.191	0.1935
1239.04	8070.76	0.2167	0.2094	0.2094	0.2161	0.2172	0.2162	0.2171	0.2242	0.2248	0.212	0.2133	0.211	0.2141	0.2109	0.2127	0.2114	0.2163	0.2096	0.2121
1249.647	8002.26	0.2443	0.2375	0.2373	0.2442	0.2453	0.2439	0.2446	0.2546	0.2541	0.2399	0.2412	0.2389	0.2415	0.2366	0.238	0.2371	0.2416	0.2356	0.2381
1260.253	7934.91	0.2674	0.259	0.2587	0.2666	0.2678	0.2664	0.2672	0.2749	0.2753	0.2621	0.2633	0.2608	0.2639	0.2589	0.2602	0.2589	0.2635	0.2567	0.2593
1270.86	7868.69	0.2916	0.2818	0.2813	0.2891	0.2904	0.2896	0.2905	0.2968	0.2978	0.2839	0.2854	0.283	0.2864	0.2819	0.2832	0.2818	0.2864	0.2792	0.282
1281.466	7803.56	0.3022	0.2927	0.2921	0.2992	0.3002	0.2997	0.3005	0.3097	0.3095	0.2938	0.2954	0.293	0.2961	0.292	0.2928	0.2923	0.2965	0.2898	0.2927
1292.073	7739.5	0.3348	0.3256	0.3247	0.3318	0.3331	0.3321	0.3327	0.3478	0.3457	0.3264	0.3282	0.3259	0.3286	0.3231	0.3239	0.323	0.3274	0.3213	0.3248
1302.68	7676.48	0.3756	0.3658	0.3646	0.3728	0.374	0.373	0.3737	0.3907	0.3882	0.3668	0.369	0.3663	0.3695	0.3631	0.3639	0.3621	0.367	0.3603	0.3643
1313.286	7614.49	0.3662	0.354	0.3531	0.3616	0.3626	0.3615	0.3621	0.3758	0.3741	0.3544	0.356	0.3539	0.357	0.3522	0.3523	0.3517	0.3551	0.349	0.3518
1323.893	7553.48	0.3603	0.3483	0.3473	0.3548	0.3555	0.3549	0.3551	0.3651	0.3639	0.347	0.3481	0.3461	0.3483	0.3447	0.3436	0.3447	0.3467	0.342	0.3435
1334.499	7493.45	0.4401	0.4268	0.4256	0.4335	0.4343	0.4331	0.4332	0.4481	0.4454	0.4246	0.4258	0.4234	0.4256	0.4207	0.4186	0.4206	0.4222	0.4178	0.4195
1345.106	7434.36	0.5189	0.5054	0.5033	0.5125	0.5138	0.5124	0.5127	0.5361	0.5309	0.5035	0.5057	0.5026	0.5054	0.4992	0.4966	0.4981	0.5004	0.4954	0.4985
1355.712	7376.2	0.5896	0.5728	0.5706	0.5811	0.5827	0.5821	0.5825	0.6047	0.6003	0.5714	0.574	0.5701	0.574	0.5676	0.5646	0.5665	0.5689	0.5631	0.5664
1366.319	7318.93	1.227	1.201	1.193	1.206	1.213	1.223	1.219	1.253	1.245	1.195	1.199	1.182	1.197	1.186	1.156	1.183	1.173	1.174	1.172
1376.926	7262.56	2.357	2.296	2.245	2.264	2.378	2.416	2.38	2.463	2.46	2.265	2.356	2.126	2.344	2.322	2.032	2.321	2.207	2.3	2.318
1387.532	7207.04	0.6414	0.6257	0.6232	0.6352	0.6358	0.629	0.6275	0.7013	0.6781	0.6217	0.6202	0.6258	0.6237	0.6213	0.6116	0.6188	0.618	0.6179	0.6169
1398.139	7152.37	0.2707	0.2568	0.2565	0.2651	0.2655	0.2609	0.2611	0.2952	0.286	0.2553	0.2543	0.257	0.2568	0.2568	0.2555	0.2552	0.2581	0.2542	0.2548
1408.745	7098.52	0.2678	0.2558	0.2549	0.2622	0.2626	0.261	0.2611	0.2756	0.2725	0.254	0.254	0.2544	0.2548	0.2543	0.253	0.2539	0.2556	0.2523	0.2528
1419.352	7045.47	0.3548	0.3379	0.3377	0.3459	0.3464	0.3447	0.3447	0.3563	0.3542	0.3368	0.3351	0.3351	0.3358	0.336	0.3339	0.3361	0.3375	0.3332	0.3324
1429.958	6993.21	0.6828	0.6622	0.6595	0.6701	0.6713	0.6719	0.6706	0.6911	0.6859	0.6596	0.659	0.6569	0.6582	0.6541	0.6457	0.6528	0.6504	0.6479	0.6466
1440.565	6941.72	1.95	1.897	1.87	1.888	1.929	1.955	1.939	1.997	1.983	1.882	1.912	1.818	1.902	1.892	1.757	1.885	1.838	1.87	1.866
1451.172	6890.98	3.434	3.07	2.878	2.911	4.396	4.153	3.769	10	10	2.936	6.156	2.505	3.808	4.058	2.362	3.936	2.847	3.842	4.387
1461.778	6840.98	3.305	3.032	2.857	2.88	3.96	3.887	3.606	4.046	5.513	2.891	4.196	2.516	3.696	4.068	2.349	3.642	2.819	3.824	4.051
1472.385	6791.7	1.632	1.603	1.59	1.607	1.626	1.637	1.622	1.781	1.733	1.592	1.605	1.575	1.603	1.604	1.523	1.592	1.563	1.584	1.575
1482.991	6743.13	0.5954	0.581	0.5774	0.5865	0.5853	0.5834	0.5797	0.6716	0.6405	0.574	0.5689	0.5803	0.5723	0.5728	0.5583	0.5675	0.5616	0.5665	0.5603
1493.598	6695.24	0.3585	0.3454	0.3438	0.3505	0.3495	0.349	0.3467	0.3868	0.3731	0.3408	0.3357	0.3427	0.3375	0.3401	0.3317	0.3376	0.3332	0.3358	0.3299
1504.204	6648.03	0.2541	0.2422	0.2418	0.2468	0.2459	0.2467	0.2453	0.2634	0.2573	0.2387	0.2333	0.2382	0.2349	0.2377	0.232	0.2367	0.2337	0.2343	0.2288
1514.811	6601.48	0.1579	0.1474	0.1475	0.1518	0.1515	0.1495	0.1491	0.1593	0.157	0.1431	0.1396	0.143	0.1421	0.1431	0.1407	0.1426	0.1421	0.1405	0.1379
1525.418	6555.58	0.109	0.0981	0.09857	0.1036	0.1036	0.1004	0.1004	0.1099	0.1086	0.09433	0.09118	0.09441	0.0946	0.09636	0.09554	0.09516	0.09624	0.09324	0.09188
1536.024	6510.31	0.08842	0.07876	0.07913	0.08391	0.08407	0.0821	0.08217	0.0905	0.08926	0.07569	0.07293	0.07546	0.07564	0.07798	0.07727	0.07683	0.07792	0.0751	0.0741
1546.631	6465.67	0.07474	0.06556	0.06588	0.06996	0.07005	0.06837	0.06838	0.07591	0.07505	0.06198	0.05986	0.06204	0.06244	0.06394	0.06349	0.06332	0.06467	0.06179	0.06106
1557.237	6421.63	0.06775	0.05819	0.0592	0.06392	0.06416	0.0611	0.06178	0.06885	0.0684	0.05565	0.05207	0.05545	0.05658	0.05752	0.05773	0.05734	0.05977	0.05547	0.05453
1567.844	6378.19	0.06582	0.05927	0.0596	0.06348	0.06378	0.06131	0.06145	0.06687	0.06669	0.05556	0.05373	0.05628	0.05706	0.05764	0.05761	0.05691	0.05899	0.0554	0.05495
1578.45	6335.33	0.08325	0.07644	0.07653	0.081	0.08129	0.08019	0.08013	0.08514	0.08496	0.07384	0.07204	0.07401	0.07449	0.07644	0.07589	0.07529	0.077	0.07371	0.07261
1589.057	6293.04	0.09463	0.08858	0.0884	0.09243	0.09257	0.09227	0.09204	0.09672	0.09645	0.08574	0.08411	0.08614	0.08622	0.08777	0.08671	0.08706	0.08824	0.08543	0.08396
1599.664	6251.31	0.1122	0.1065	0.1062	0.11	0.1101	0.1096	0.1093	0.114	0.1136	0.1035	0.1015	0.1043	0.1043	0.1047	0.1032	0.1045	0.1054	0.1029	0.1009
1610.27	6210.14	0.1157	0.111	0.1108	0.1149	0.1148	0.1141	0.1136	0.1195	0.1186	0.1081	0.1056	0.1095	0.109	0.1093	0.1073	0.1088	0.1092	0.107	0.1045
1620.877	6169.5	0.05853	0.05334	0.05353	0.05809	0.05847	0.05707	0.05739	0.06254	0.06285	0.05095	0.04969	0.05227	0.05348	0.0545	0.05497	0.05349	0.05645	0.05201	0.05215
1631.483	6129.39	0.04335	0.03828	0.03838	0.04271	0.04316	0.04195	0.04239	0.04654	0.04707	0.03581	0.03504	0.03679	0.03813	0.03918	0.03993	0.03844	0.04142	0.03743	0.03805
1642.09	6089.8	0.03968	0.03464	0.03481	0.03898	0.03935	0.03758	0.03805	0.04206	0.04266	0.03147	0.03067	0.03286	0.03431	0.03454	0.03533	0.03423	0.03709	0.0334	0.03402
1652.696	6050.72	0.03785	0.03412	0.03437	0.03814	0.0384	0.03659	0.03722	0.04095	0.04141	0.03177	0.03047	0.03264	0.03435	0.03337	0.0342	0.03315	0.03615	0.0326	0.03327
1663.303	6012.13	0.03846	0.03418	0.0344	0.03836	0.03888	0.03713	0.03772	0.04201	0.04273	0.03197	0.0313	0.03295	0.03474	0.03462	0.03561	0.0339	0.03704	0.03301	0.03389
1673.91	5974.04	0.03828	0.0341	0.03444	0.03897	0.03969	0.0382	0.03905	0.04363	0.04464	0.03337	0.03297	0.03399	0.03619	0.03613	0.03775	0.03538	0.03928	0.03443	0.03581
1684.516	5936.42	0.03693	0.03333	0.03394	0.03906	0.04034	0.03826	0.03976	0.04448	0.04633	0.03504	0.03541	0.03591	0.03947	0.03754	0.0409	0.03768	0.0435	0.0368	0.0396
1695.123	5899.28	0.0327	0.03146	0.03198	0.03612	0.03777	0.03576	0.03768	0.04205	0.0443	0.03385	0.03491	0.03534	0.03942	0.0358	0.04005	0.03661	0.04348	0.03574	0.0394
1705.729	5862.6	0.02876	0.02801	0.02905	0.03502	0.0373	0.03515	0.03773	0.04239	0.04594	0.03435	0.03652	0.03648	0.04216	0.03834	0.04461	0.03942	0.0484	0.03856	0.04373
1716.336	5826.37	0.02644	0.02638	0.02753	0.03457	0.03737	0.03607	0.03921	0.04328	0.04767	0.03601	0.03919	0.03792	0.04451	0.04063	0.04806	0.04203	0.05156	0.04124	0.04736
1726.942	5790.58	0.0234	0.02461	0.02548	0.03039	0.03275	0.03233	0.0349	0.03723	0.04105	0.03276	0.03611	0.03354	0.03921	0.03404	0.04066	0.03555	0.04433	0.03535	0.04094
1737.549	5755.23	0.02232	0.02204	0.02252	0.02728	0.02911	0.02816	0.03017	0.03254	0.03573	0.02715	0.02991	0.02825	0.03311	0.0285	0.03429	0.03015	0.03784	0.02985	0.03497
1748.155	5720.31	0.02389	0.01974	0.02027	0.02571	0.02722	0.02532	0.02698	0.03088	0.03344	0.02228	0.02391	0.02379	0.02776	0.02535	0.03005	0.02629	0.03245	0.02544	0.02944
1758.762	5685.82	0.02133	0.01819	0.01868	0.02187	0.0231	0.02215	0.02326	0.02636	0.02824	0.01886	0.01994	0.01921	0.02205	0.02007	0.02328	0.02044	0.025	0.02003	0.02259
1769.369	5651.73	0.0193	0.01799	0.01866	0.0224	0.02413	0.02296	0.02467	0.0276	0.03026	0.02043	0.0227	0.02098	0.02491	0.02192	0.02639	0.0226	0.02824	0.02262	0.02683
1779.975	5618.06	0.018	0.01553	0.01618	0.01902	0.02042	0.01869	0.01995	0.02356	0.02553	0.01618	0.01762	0.01651	0.01947	0.01692	0.02049	0.01792	0.02245	0.01805	0.02108
1790.582	5584.78	0.01586	0.01363	0.01382	0.01532	0.01617	0.01505	0.01567	0.01917	0.02027	0.01117	0.0119	0.0117	0.01324	0.01135	0.0133	0.01215	0.01456	0.01204	0.01372
1801.188	5551.89	0.01392	0.01006	0.01027	0.01166	0.01228	0.01153	0.01176	0.01498	0.01568	0.006383	0.00663	0.006405	0.007301	0.006621	0.007667	0.006652	0.007999	0.006405	0.007217
1811.795	5519.39	0.01173	0.007155	0.007416	0.009364	0.009825	0.008787	0.008898	0.01192	0.01247	0.003532	0.003471	0.002906	0.003414	0.003519	0.004154	0.003462	0.004181	0.003274	0.003585
1822.401	5487.27	0.01075	0.006881	0.006996	0.008282	0.008672	0.007619	0.007601	0.01043	0.01083	0.002749	0.002592	0.001906	0.00209	0.001902	0.002216	0.00212	0.002295	0.002194	0.002317
1833.008	5455.51	0.01087	0.00753	0.007632	0.008141	0.008433	0.007535	0.007429	0.01026	0.01057	0.002194	0.00195	0.001793	0.001841	0.001405	0.001466	0.001667	0.001601	0.00178	0.001675
1843.615	5424.13	0.01212	0.008942	0.00873	0.008974	0.009182	0.009045	0.008801	0.01144	0.01161	0.002771	0.002824	0.002832	0.002671	0.002443	0.002312	0.002317	0.001889	0.002264	0.002299
1854.221	5393.1	0.01291	0.008592	0.008725	0.009901	0.01018	0.009559	0.009413	0.0121	0.01227	0.003821	0.003449	0.003038	0.002837	0.00306	0.002797	0.00292	0.002583	0.002968	0.002566
1864.828	5362.43	0.01437	0.01003	0.01002	0.01151	0.01175	0.01079	0.01055	0.01361	0.01367	0.005195	0.004729	0.004474	0.004137	0.004444	0.004141	0.004514	0.003957	0.004448	0.004106
1875.434	5332.1	0.01607	0.01249	0.01258	0.01298	0.01321	0.01248	0.01225	0.01527	0.01527	0.006996	0.006502	0.006396	0.006048	0.005921	0.005516	0.006079	0.005485	0.006224	0.005656
1886.041	5302.11	0.01669	0.01323	0.01322	0.01337	0.01357	0.01326	0.013	0.01616	0.01612	0.00697	0.006542	0.00678	0.006383	0.006304	0.005912	0.006365	0.005753	0.006326	0.005846
1896.647	5272.46	0.01509	0.01096	0.01101	0.01186	0.01208	0.01164	0.01138	0.01465	0.01454	0.005335	0.0049	0.004966	0.004593	0.004839	0.004444	0.004606	0.004097	0.004545	0.004088
1907.254	5243.14	0.01352	0.008982	0.00904	0.01047	0.01071	0.009777	0.009541	0.01284	0.01282	0.004005	0.003585	0.00344	0.003112	0.003348	0.003038	0.003274	0.002788	0.003256	0.002854
1917.861	5214.14	0.01273	0.00927	0.009146	0.009617	0.009794	0.009359	0.009009	0.01215	0.0121	0.00358	0.003379	0.003186	0.002727	0.002657	0.002343	0.002749	0.002142	0.002924	0.002644
1928.467	5185.47	0.01024	0.006965	0.007031	0.006859	0.007084	0.006833	0.006581	0.009528	0.009571	0.0006041	0.0001563	0.0003606	3.038E-5	3.038E-5	-0.0002605	8.25E-5	-0.0003907	0.0002085	-0.0002605
1939.074	5157.1	0.009373	0.005793	0.005789	0.006207	0.006414	0.00615	0.005846	0.008566	0.008584	-0.000434	-0.0008243	-0.0004774	-0.0008676	-0.0007376	-0.001128	-0.0008243	-0.001344	-0.0009543	-0.001387
1949.68	5129.05	0.005445	0.001248	0.001366	0.002609	0.002863	0.002002	0.001789	0.004426	0.004527	-0.003805	-0.004149	-0.004278	-0.004493	-0.00445	-0.004665	-0.00445	-0.004708	-0.004407	-0.004665
1960.287	5101.29	0.004211	0.0001911	0.0003041	0.001183	0.001466	0.0005693	0.0003737	0.003195	0.003372	-0.004966	-0.005266	-0.005567	-0.005781	-0.005695	-0.005824	-0.005567	-0.005781	-0.005395	-0.005609
1970.893	5073.84	0.003747	0.000378	0.0004997	0.0003128	0.0005954	0.0002737	9.122E-5	0.002867	0.003071	-0.006038	-0.006252	-0.006295	-0.006423	-0.006252	-0.006295	-0.006209	-0.006423	-0.006124	-0.006338
1981.5	5046.68	0.003896	0.0004258	0.0005432	0.0005823	0.0008956	0.0006128	0.0004389	0.002871	0.003076	-0.006081	-0.006338	-0.006081	-0.006252	-0.006166	-0.006252	-0.006166	-0.00638	-0.006209	-0.006423
1992.107	5019.81	0.004382	0.0001042	0.0001651	0.001292	0.001562	0.0007433	0.0005084	0.002941	0.003134	-0.005566	-0.005652	-0.005609	-0.005781	-0.005738	-0.005824	-0.005824	-0.006038	-0.005824	-0.005909
2002.713	4993.23	0.004944	0.0006955	0.0008477	0.001906	0.002212	0.001196	0.001044	0.003751	0.003926	-0.00445	-0.004622	-0.004923	-0.005052	-0.005095	-0.00518	-0.005009	-0.005052	-0.004837	-0.005009
2013.32	4966.92	0.007261	0.003519	0.003611	0.00369	0.003988	0.003559	0.003432	0.006635	0.006745	-0.002727	-0.0029	-0.002986	-0.003115	-0.002986	-0.002943	-0.002986	-0.002986	-0.002857	-0.0029
2023.926	4940.89	0.01137	0.007818	0.007902	0.007782	0.008088	0.007928	0.007796	0.01153	0.01139	0.0009348	0.000826	0.001139	0.001022	0.001018	0.001092	0.0008956	0.0009392	0.0008608	0.0009218
2034.533	4915.13	0.01266	0.00861	0.008668	0.009617	0.009937	0.00912	0.008978	0.0129	0.01262	0.002601	0.002517	0.002819	0.002688	0.002391	0.002386	0.002373	0.002448	0.002325	0.002404
2045.139	4889.64	0.01164	0.007151	0.007239	0.008561	0.008876	0.007729	0.007561	0.01137	0.01122	0.001919	0.00181	0.001793	0.001627	0.00127	0.001257	0.001401	0.001457	0.001466	0.001549
2055.746	4864.41	0.01064	0.006471	0.006551	0.007023	0.007305	0.006793	0.006643	0.01051	0.01038	0.000565	0.0004171	0.0003128	0.0001607	0.0002259	0.000252	0.0001955	0.0002389	0.000378	0.0003693
2066.353	4839.45	0.01027	0.006652	0.006696	0.006418	0.006709	0.006709	0.006555	0.009728	0.009768	-0.0004775	-0.0006076	-0.0003907	-0.0004775	-8.69E-05	-4.35E-05	-0.0003039	-0.0003473	-0.0003907	-0.0003907
2076.959	4814.73	0.009945	0.006158	0.00622	0.006753	0.007049	0.006533	0.006379	0.008991	0.009082	-0.0003473	-0.0005208	-0.0001303	-0.0002605	-0.0002605	-0.0002605	-0.0002171	-0.0002605	-0.0004341	-0.0004341
2087.566	4790.27	0.01012	0.005652	0.0057	0.00708	0.007358	0.006268	0.006123	0.008761	0.008895	0.0002824	0.000113	0.0002302	8.253E-5	-0.0002605	-0.0003039	-4.34E-05	-4.34E-05	-4.34E-05	-8.68E-05
2098.172	4766.05	0.01075	0.006357	0.006392	0.007102	0.007402	0.006762	0.006621	0.009577	0.00972	0.0006041	0.0004302	0.0003389	0.0001998	0.0001955	0.000126	0.0002954	0.000252	0.000378	0.0003259
2108.779	4742.08	0.01199	0.008362	0.00838	0.008079	0.008358	0.008464	0.0083	0.0113	0.01142	0.001274	0.001087	0.001279	0.001131	0.001597	0.001588	0.001409	0.001353	0.001309	0.00127
2119.385	4718.35	0.0134	0.009732	0.009754	0.009981	0.01025	0.01011	0.009937	0.01254	0.0126	0.002749	0.002548	0.003147	0.002998	0.003165	0.003138	0.003011	0.002994	0.002819	0.002793
2129.992	4694.85	0.01466	0.01024	0.01026	0.01161	0.01187	0.01092	0.01078	0.01343	0.01348	0.00454	0.004378	0.004799	0.004624	0.004198	0.004097	0.004466	0.00447	0.004356	0.004343
2140.599	4671.59	0.0169	0.01218	0.01218	0.01328	0.01354	0.01272	0.01256	0.01591	0.01591	0.00659	0.006418	0.006502	0.00633	0.00607	0.00596	0.00626	0.006291	0.006321	0.006348
2151.205	4648.56	0.02028	0.01621	0.01618	0.01613	0.01642	0.01648	0.01633	0.01993	0.01988	0.009315	0.009151	0.009311	0.009155	0.009488	0.009426	0.009328	0.009359	0.009133	0.009217
2161.812	4625.75	0.02232	0.01864	0.01855	0.01852	0.0188	0.01898	0.01883	0.02211	0.02204	0.01127	0.01108	0.01172	0.0116	0.01182	0.01182	0.01159	0.01163	0.01119	0.01126
2172.418	4603.17	0.02425	0.01993	0.01985	0.02104	0.02133	0.0206	0.02045	0.02373	0.02357	0.01378	0.01357	0.01432	0.01409	0.01371	0.01365	0.01385	0.01391	0.01351	0.01362
2183.025	4580.8	0.02574	0.02087	0.02079	0.02224	0.0225	0.0216	0.02145	0.02543	0.02518	0.01543	0.01525	0.01557	0.01533	0.01474	0.01465	0.01503	0.0151	0.01498	0.01512
2193.631	4558.65	0.02651	0.02208	0.022	0.0223	0.02257	0.02253	0.02239	0.02685	0.02657	0.01559	0.01538	0.0156	0.01536	0.01543	0.0153	0.01535	0.01543	0.01519	0.01532
2204.238	4536.72	0.02678	0.02304	0.02292	0.0227	0.02298	0.02334	0.02319	0.02727	0.02698	0.01556	0.01533	0.01592	0.01569	0.01615	0.01608	0.01575	0.01578	0.01536	0.01544
2214.845	4514.99	0.02681	0.02278	0.02267	0.02348	0.02377	0.02338	0.02324	0.02662	0.02642	0.01611	0.01589	0.01678	0.01657	0.01642	0.01637	0.01637	0.01641	0.01595	0.01602
2225.451	4493.47	0.02751	0.02267	0.02258	0.02406	0.02436	0.02344	0.02327	0.02669	0.02659	0.01715	0.01694	0.01745	0.01723	0.0166	0.01645	0.01699	0.01701	0.01678	0.01684
2236.058	4472.16	0.02818	0.02335	0.02327	0.02388	0.02414	0.02396	0.02376	0.02755	0.02748	0.01726	0.01705	0.01716	0.01696	0.01679	0.01667	0.01686	0.01695	0.01677	0.01687
2246.664	4451.04	0.02942	0.02514	0.02507	0.02488	0.02515	0.0255	0.02531	0.0293	0.02909	0.01785	0.01758	0.01794	0.01776	0.0182	0.01817	0.01779	0.01786	0.01737	0.01744
2257.271	4430.13	0.03136	0.02682	0.02679	0.02761	0.02792	0.02741	0.02719	0.03108	0.03071	0.02005	0.01967	0.02043	0.02024	0.02045	0.02057	0.01995	0.02002	0.01936	0.01949
2267.877	4409.41	0.03356	0.02814	0.02817	0.03024	0.03051	0.02904	0.02882	0.03307	0.03264	0.02292	0.02248	0.02303	0.02288	0.02234	0.02243	0.02224	0.02233	0.02187	0.02207
2278.484	4388.88	0.03735	0.03126	0.03129	0.03278	0.03311	0.03201	0.03178	0.0366	0.03621	0.02589	0.02552	0.02556	0.02542	0.02498	0.02503	0.02486	0.02501	0.02468	0.02487
2289.091	4368.55	0.04211	0.03447	0.03462	0.03542	0.03574	0.03488	0.03462	0.03952	0.03914	0.02825	0.0277	0.02733	0.02726	0.02763	0.02795	0.02667	0.02675	0.02615	0.0264
2299.697	4348.4	0.04851	0.03661	0.03709	0.03909	0.0395	0.03704	0.03668	0.04151	0.04113	0.03122	0.03028	0.02963	0.0298	0.03023	0.03107	0.02839	0.02847	0.02756	0.02795
2310.304	4328.44	0.05315	0.03843	0.03921	0.04461	0.04505	0.03868	0.03799	0.04435	0.04383	0.03617	0.03444	0.03277	0.03327	0.03291	0.03438	0.03054	0.03064	0.02969	0.03007
2320.91	4308.65	0.05362	0.04005	0.04035	0.04681	0.04718	0.04008	0.03942	0.04572	0.04584	0.03764	0.03615	0.03487	0.0353	0.03493	0.03542	0.0329	0.03304	0.03205	0.03239
2331.517	4289.05	0.05374	0.04218	0.04153	0.04761	0.04796	0.04147	0.04108	0.04699	0.04767	0.03879	0.03757	0.03681	0.03709	0.0368	0.03639	0.03511	0.03526	0.03423	0.03456
2342.123	4269.63	0.05387	0.04399	0.04283	0.04829	0.04861	0.04299	0.04277	0.04849	0.04929	0.03975	0.03876	0.03842	0.03858	0.03839	0.03748	0.03696	0.03713	0.03607	0.03637
2352.73	4250.38	0.05402	0.04566	0.04421	0.04891	0.0492	0.04459	0.04448	0.05011	0.05081	0.04062	0.03983	0.03989	0.03994	0.03982	0.03863	0.03864	0.03883	0.03773	0.03802
2363.336	4231.31	0.05413	0.048	0.04533	0.0498	0.05005	0.04592	0.04614	0.05126	0.05278	0.04189	0.0414	0.04202	0.04191	0.0419	0.03954	0.04107	0.04129	0.04016	0.04041
2373.943	4212.4	0.05433	0.0485	0.04718	0.04993	0.05018	0.04799	0.04796	0.0537	0.05354	0.04208	0.04163	0.04234	0.04221	0.04224	0.04113	0.04144	0.04167	0.04052	0.04077
2384.55	4193.66	0.05451	0.04917	0.04898	0.05013	0.05037	0.05	0.04977	0.05539	0.05441	0.04236	0.04198	0.04282	0.04265	0.04275	0.04266	0.04199	0.04222	0.04107	0.04131
2395.156	4175.09	0.05488	0.05074	0.05044	0.05127	0.0515	0.05176	0.05159	0.0562	0.05581	0.04369	0.04347	0.04464	0.04443	0.04436	0.04416	0.04392	0.04414	0.04297	0.04314
2405.763	4156.69	0.05636	0.05145	0.05112	0.05293	0.05317	0.05278	0.05258	0.05703	0.05658	0.04571	0.04548	0.04651	0.04627	0.04551	0.04528	0.04574	0.04598	0.04501	0.04521
2416.369	4138.44	0.05586	0.05114	0.0508	0.05191	0.05216	0.05214	0.05194	0.05716	0.05662	0.04504	0.04481	0.04543	0.04518	0.04452	0.04426	0.04484	0.04509	0.04445	0.0446
2426.976	4120.35	0.05432	0.05033	0.05003	0.05009	0.05032	0.05104	0.05088	0.05598	0.05548	0.04285	0.04262	0.04338	0.04315	0.04315	0.04287	0.04287	0.04316	0.04229	0.04245
2437.582	4102.43	0.05211	0.04827	0.04795	0.04846	0.04871	0.04926	0.04909	0.05317	0.05286	0.04089	0.04064	0.04172	0.04155	0.04174	0.04157	0.04126	0.04152	0.04026	0.04043
2448.189	4084.65	0.05036	0.04573	0.04545	0.04707	0.04734	0.04706	0.04691	0.05071	0.05046	0.03971	0.03951	0.04062	0.04047	0.04011	0.03995	0.04011	0.04044	0.03925	0.03941
2458.796	4067.03	0.04956	0.04479	0.0445	0.04602	0.04628	0.04598	0.04582	0.0497	0.0496	0.03904	0.03883	0.03953	0.03939	0.03876	0.03859	0.03925	0.03959	0.03878	0.03893
2469.402	4049.56	0.04988	0.04582	0.04553	0.04586	0.04612	0.04664	0.04652	0.05061	0.05053	0.03886	0.03868	0.03921	0.03912	0.03892	0.03873	0.03898	0.03935	0.03847	0.03863
2480.009	4032.24	0.0513	0.0475	0.04719	0.04754	0.04779	0.04848	0.04837	0.05219	0.05206	0.04001	0.03983	0.04075	0.0407	0.04093	0.04079	0.04045	0.04091	0.03954	0.03981
2490.615	4015.07	0.05335	0.04902	0.04868	0.05015	0.05042	0.05045	0.05034	0.05396	0.05382	0.04262	0.04251	0.04362	0.04357	0.04347	0.04337	0.04316	0.04363	0.04215	0.04244
2501.222	3998.05	0.05764	0.05277	0.05246	0.0543	0.05458	0.05428	0.05413	0.05845	0.05823	0.04719	0.04711	0.04789	0.0479	0.04717	0.04712	0.04748	0.04806	0.04673	0.0471
2511.828	3981.16	0.06375	0.05916	0.05882	0.05976	0.06006	0.06034	0.06028	0.06502	0.06478	0.05272	0.05267	0.0532	0.05325	0.05263	0.05255	0.05289	0.0535	0.05227	0.05274
2522.435	3964.42	0.07197	0.06792	0.06752	0.068	0.06828	0.06907	0.06897	0.07364	0.07344	0.06046	0.06048	0.0611	0.06123	0.06098	0.06095	0.06062	0.06132	0.05974	0.06029
2533.042	3947.82	0.08053	0.07585	0.07543	0.07689	0.07725	0.07765	0.07761	0.082	0.08179	0.06912	0.06914	0.07008	0.07028	0.06989	0.06989	0.06941	0.07013	0.06814	0.06874
2543.648	3931.36	0.08954	0.08424	0.08378	0.08603	0.08638	0.0862	0.08611	0.0908	0.09055	0.07855	0.07864	0.07935	0.07952	0.07857	0.07858	0.07867	0.07935	0.07747	0.07814
2554.255	3915.04	0.1022	0.09693	0.09642	0.09807	0.09846	0.09865	0.09858	0.1037	0.1034	0.09084	0.09093	0.09121	0.09149	0.09029	0.0902	0.09056	0.09131	0.08964	0.09034
2564.861	3898.85	0.1193	0.1143	0.1137	0.1147	0.115	0.116	0.1159	0.1215	0.1211	0.1069	0.107	0.1075	0.1077	0.1068	0.1065	0.1065	0.1072	0.1054	0.1061
2575.468	3882.79	0.1416	0.1362	0.1355	0.1372	0.1376	0.1385	0.1384	0.1451	0.1442	0.129	0.129	0.13	0.1301	0.129	0.1287	0.1284	0.1291	0.1267	0.1275
2586.074	3866.86	0.1657	0.1594	0.1586	0.1614	0.1618	0.1623	0.1621	0.1707	0.1693	0.1533	0.1535	0.1543	0.1545	0.1528	0.1523	0.1522	0.1529	0.1504	0.1514
2596.681	3851.07	0.1871	0.1806	0.1797	0.1824	0.1829	0.1834	0.1833	0.1937	0.1918	0.1746	0.1748	0.1754	0.1756	0.1733	0.1727	0.173	0.1738	0.1714	0.1725
2607.288	3835.4	0.2029	0.1968	0.1958	0.1978	0.1982	0.1995	0.1993	0.2106	0.2085	0.1896	0.1899	0.1906	0.1907	0.1883	0.1877	0.1878	0.1887	0.1863	0.1874
2617.894	3819.86	0.2135	0.2073	0.2062	0.2084	0.2087	0.2102	0.21	0.2215	0.2193	0.1997	0.2	0.2008	0.201	0.1989	0.1982	0.1979	0.1987	0.1959	0.1972
2628.501	3804.45	0.2227	0.2157	0.2145	0.2178	0.2182	0.2193	0.219	0.2303	0.2281	0.2092	0.2094	0.2103	0.2105	0.2084	0.2076	0.2073	0.2081	0.2052	0.2064
2639.107	3789.16	0.2321	0.2249	0.2236	0.2272	0.2276	0.2283	0.2281	0.2398	0.2375	0.2188	0.2191	0.2197	0.2199	0.2174	0.2166	0.2168	0.2176	0.2148	0.2161
2649.714	3773.99	0.2458	0.2385	0.2373	0.2401	0.2405	0.2416	0.2413	0.254	0.2515	0.2315	0.232	0.2325	0.2326	0.23	0.229	0.2295	0.2302	0.2277	0.229
2660.32	3758.95	0.2745	0.267	0.2655	0.2683	0.2686	0.2703	0.27	0.2835	0.2807	0.2591	0.2594	0.2601	0.2603	0.2577	0.2564	0.2567	0.2573	0.2545	0.2558
2670.927	3744.02	0.2841	0.2764	0.275	0.2786	0.2791	0.2805	0.2802	0.295	0.2917	0.2693	0.2698	0.2707	0.2708	0.2682	0.267	0.2669	0.2677	0.2644	0.266
2681.534	3729.21	0.2681	0.2601	0.2587	0.2629	0.2634	0.2639	0.2638	0.2801	0.2765	0.2538	0.2545	0.2552	0.2556	0.2528	0.2521	0.2518	0.2531	0.2496	0.2516
2692.14	3714.52	0.2604	0.2527	0.2513	0.2551	0.2556	0.2561	0.256	0.2716	0.2683	0.2461	0.2468	0.2472	0.2477	0.2449	0.2443	0.2443	0.2456	0.2424	0.2444
2702.747	3699.94	0.2637	0.2561	0.2548	0.2579	0.2584	0.2596	0.2596	0.2723	0.27	0.2487	0.2494	0.2496	0.2502	0.2478	0.2471	0.2471	0.2482	0.2451	0.2469
2713.353	3685.48	0.307	0.2986	0.2971	0.3008	0.3014	0.3032	0.3031	0.3157	0.3134	0.2914	0.2921	0.2922	0.2929	0.2901	0.2888	0.2889	0.2896	0.2861	0.2878
2723.96	3671.13	0.3601	0.3509	0.349	0.3539	0.3544	0.3562	0.3557	0.371	0.3676	0.3443	0.3448	0.3452	0.3454	0.3422	0.34	0.3408	0.3411	0.3377	0.3391
2734.566	3656.89	0.3147	0.3058	0.3041	0.309	0.3094	0.3095	0.3093	0.3302	0.3249	0.2991	0.2997	0.301	0.3008	0.2983	0.2968	0.2974	0.2985	0.2953	0.2972
2745.173	3642.76	0.2671	0.2585	0.2571	0.2611	0.2615	0.2615	0.2614	0.2851	0.279	0.251	0.2518	0.2532	0.2531	0.2514	0.2504	0.2504	0.252	0.249	0.2512
2755.78	3628.74	0.2681	0.259	0.2576	0.2616	0.2621	0.2625	0.2624	0.2807	0.2764	0.2514	0.2521	0.2528	0.253	0.2518	0.2508	0.2507	0.252	0.249	0.251
2766.386	3614.82	0.288	0.2777	0.2762	0.2812	0.2817	0.282	0.2818	0.2966	0.2934	0.2709	0.2716	0.2717	0.2722	0.2711	0.27	0.2701	0.271	0.2679	0.2698
2776.993	3601.02	0.3504	0.3385	0.3366	0.3424	0.343	0.3431	0.3431	0.3581	0.3549	0.3318	0.3327	0.3324	0.333	0.3311	0.3297	0.3302	0.3312	0.3277	0.3299
2787.599	3587.32	0.4636	0.4494	0.447	0.4533	0.4541	0.4542	0.4545	0.4744	0.4694	0.4415	0.4428	0.4424	0.4431	0.4397	0.4374	0.4389	0.44	0.4361	0.4389
2798.206	3573.72	0.6085	0.5916	0.5882	0.5957	0.5971	0.5978	0.5981	0.6234	0.6166	0.5825	0.5843	0.583	0.5845	0.5797	0.5755	0.5783	0.5795	0.5746	0.5783
2808.812	3560.22	0.8184	0.7962	0.7914	0.8012	0.8037	0.8067	0.8062	0.836	0.8292	0.7875	0.7909	0.785	0.79	0.7833	0.7747	0.7805	0.7799	0.7751	0.7795
2819.419	3546.83	1.222	1.187	1.179	1.192	1.2	1.21	1.206	1.244	1.241	1.18	1.188	1.166	1.185	1.174	1.15	1.169	1.161	1.159	1.164
2830.026	3533.54	2.232	2.148	2.109	2.123	2.202	2.237	2.22	2.277	2.284	2.128	2.191	2.011	2.183	2.159	1.953	2.147	2.068	2.124	2.132
2840.632	3520.34	3.628	3.136	2.934	2.959	5.648	6	4.38	9.106	10	3.043	4.395	2.542	5.994	3.946	2.386	4.179	2.936	4.399	4.071
2851.239	3507.25	3.625	3.184	2.95	2.983	6	6	6	4.222	10	3.054	5.152	2.582	4.667	4.277	2.42	4.496	2.979	4.991	4.072
2861.845	3494.25	3.595	3.164	2.93	2.971	4.021	4.69	4.421	4.097	10	3.053	4.807	2.592	4.678	4.316	2.441	3.935	2.972	4.497	4.043
2872.452	3481.35	3.553	3.116	2.94	2.989	4.782	6	4.796	4.699	10	3.041	5.997	2.615	4.213	4.649	2.45	4.498	2.979	4.44	4.046
2883.058	3468.54	3.547	3.152	2.944	3.005	6.002	6	4.64	4.155	10	3.062	5.997	2.618	4.753	4.539	2.445	5.544	2.955	4.222	4.368
2893.665	3455.83	3.555	3.163	2.93	2.985	5.752	5.349	4.344	4.301	10	3.047	5.997	2.594	4.335	4.572	2.437	4.084	2.971	4.501	4.073
2904.271	3443.2	3.543	3.196	2.942	2.977	6.056	4.21	4.747	4.523	10	3.047	5.156	2.594	4.046	4.265	2.454	4.06	2.991	4.328	3.964
2914.878	3430.68	3.683	3.207	2.948	3.089	4.577	4.845	4.583	4.155	10	3.104	4.373	2.672	4.49	5.994	2.518	4.247	3.022	4.776	4.069
2925.485	3418.24	3.63	3.224	2.991	3.153	4.697	5.684	4.342	4.523	10	3.101	4.519	2.714	5.994	4.84	2.556	4.298	3.101	5.069	4.842
2936.091	3405.89	3.608	3.269	2.969	3.093	4.924	6	4.764	4.155	10	3.083	4.282	2.718	4.211	4.511	2.535	3.955	3.04	3.984	5.994
2946.698	3393.63	3.652	3.228	3.001	3.061	4.991	6	4.451	4.301	10	3.098	5.997	2.704	4.515	5.994	2.513	4.089	3.034	5.994	5.994
2957.304	3381.46	3.608	3.216	2.982	3.037	5.071	6	4.764	10	10	3.096	4.581	2.684	4.11	5.994	2.502	5.088	3.034	5.994	5.994
2967.911	3369.37	3.524	3.181	2.983	3.051	4.791	6	4.331	5	10	3.081	5.156	2.718	4.143	4.879	2.508	5.993	3.041	5.994	4.049
2978.517	3357.37	2.715	2.633	2.542	2.585	2.791	2.801	2.766	3.568	3.43	2.596	2.764	2.413	2.806	2.793	2.271	2.74	2.535	2.742	2.764
2989.124	3345.46	1.331	1.307	1.295	1.309	1.316	1.31	1.304	1.537	1.464	1.288	1.292	1.3	1.306	1.298	1.254	1.286	1.277	1.286	1.287
2999.731	3333.63	0.8641	0.8467	0.8407	0.8476	0.8483	0.847	0.8445	0.9214	0.8945	0.8322	0.83	0.8398	0.8366	0.8322	0.8137	0.8281	0.823	0.8253	0.8214
3010.337	3321.89	0.6505	0.6373	0.6332	0.6379	0.6373	0.6376	0.6352	0.677	0.6616	0.6245	0.6209	0.6306	0.6262	0.6233	0.6106	0.6213	0.6162	0.6178	0.6125
3020.944	3310.22	0.5061	0.4962	0.493	0.4961	0.4951	0.4963	0.4939	0.5283	0.5157	0.4844	0.4804	0.4904	0.4856	0.4839	0.4737	0.4823	0.4777	0.4794	0.4739
3031.55	3298.64	0.3928	0.3842	0.3817	0.3844	0.3837	0.3843	0.3824	0.415	0.4039	0.3732	0.3702	0.3794	0.3757	0.3744	0.3671	0.3726	0.3699	0.3702	0.3664
3042.157	3287.14	0.3277	0.3203	0.3182	0.3209	0.3201	0.3204	0.3188	0.3486	0.3385	0.3102	0.3075	0.3162	0.3129	0.3117	0.3055	0.3099	0.3079	0.3078	0.3046
3052.763	3275.72	0.2676	0.2611	0.2593	0.2618	0.2612	0.2611	0.2598	0.2835	0.2757	0.2515	0.2492	0.2573	0.2547	0.2534	0.2489	0.252	0.2512	0.2502	0.2478
3063.37	3264.38	0.2331	0.2272	0.2257	0.2276	0.227	0.2269	0.2259	0.2451	0.2387	0.2174	0.2152	0.223	0.2207	0.2197	0.2157	0.2185	0.2178	0.2167	0.2145
3073.977	3253.12	0.1891	0.1843	0.1832	0.1846	0.1841	0.1839	0.1833	0.1989	0.194	0.1746	0.173	0.1799	0.1783	0.1771	0.1744	0.1763	0.1766	0.1746	0.1732
3084.583	3241.93	0.1493	0.1449	0.144	0.1455	0.1452	0.1448	0.1444	0.1569	0.1533	0.1355	0.1346	0.1406	0.1398	0.1386	0.137	0.1379	0.139	0.1362	0.1358
3095.19	3230.82	0.1263	0.1218	0.1211	0.1228	0.1226	0.1219	0.1216	0.133	0.1301	0.1128	0.1122	0.1179	0.1175	0.1163	0.1154	0.1155	0.1172	0.1139	0.114
3105.796	3219.79	0.1148	0.1108	0.1101	0.1115	0.1113	0.1106	0.1104	0.1214	0.1186	0.1015	0.101	0.1067	0.1064	0.1051	0.1044	0.1042	0.106	0.1028	0.103
3116.403	3208.83	0.1069	0.1027	0.1022	0.1035	0.1034	0.1026	0.1025	0.1132	0.1106	0.09315	0.0927	0.09842	0.09833	0.09714	0.09661	0.09639	0.09839	0.09487	0.09519
3127.009	3197.94	0.1029	0.09894	0.09835	0.09987	0.09973	0.09893	0.09881	0.1093	0.1066	0.08941	0.08901	0.09454	0.09443	0.09341	0.09292	0.09273	0.09473	0.09115	0.09154
3137.616	3187.13	0.1022	0.09824	0.09767	0.09947	0.09927	0.0985	0.09835	0.1084	0.106	0.08883	0.08851	0.09394	0.09396	0.09281	0.09236	0.09201	0.09405	0.09055	0.09102
3148.223	3176.4	0.1043	0.1002	0.0996	0.1015	0.1012	0.1006	0.1003	0.1103	0.1079	0.09073	0.09035	0.09594	0.09596	0.09472	0.09423	0.09382	0.09576	0.09238	0.09276
3158.829	3165.73	0.1064	0.1025	0.1019	0.1037	0.1034	0.1029	0.1027	0.1126	0.1101	0.09268	0.09228	0.098	0.09794	0.09668	0.09606	0.09577	0.09769	0.09415	0.09446
3169.436	3155.14	0.1057	0.1024	0.1018	0.1036	0.1033	0.1029	0.1026	0.1127	0.1101	0.09244	0.09202	0.09783	0.09764	0.09655	0.09589	0.09564	0.09762	0.094	0.09436
3180.042	3144.61	0.1008	0.09757	0.097	0.09916	0.09879	0.09825	0.09803	0.1088	0.106	0.08775	0.08735	0.09327	0.09308	0.09209	0.09149	0.09097	0.093	0.0894	0.08979
3190.649	3134.16	0.09064	0.08753	0.08699	0.08924	0.0889	0.08833	0.0881	0.09993	0.09677	0.0778	0.07745	0.08359	0.08334	0.0823	0.08169	0.08101	0.08307	0.07969	0.08013
3201.255	3123.77	0.07623	0.07351	0.07312	0.07519	0.07482	0.07421	0.07392	0.0854	0.08234	0.06359	0.06324	0.06953	0.06939	0.06835	0.06793	0.06715	0.06933	0.06576	0.06624
3211.862	3113.46	0.06107	0.05882	0.0585	0.06041	0.06002	0.0593	0.05908	0.06801	0.0657	0.04855	0.04817	0.05426	0.05426	0.05372	0.05348	0.05272	0.05495	0.05122	0.05163
3222.469	3103.21	0.04858	0.0462	0.046	0.0481	0.0476	0.04692	0.04672	0.05321	0.05168	0.03612	0.03576	0.04156	0.04176	0.04144	0.04126	0.04056	0.04278	0.03913	0.03953
3233.075	3093.03	0.03971	0.03708	0.0369	0.03905	0.03856	0.03787	0.03769	0.04244	0.04151	0.0271	0.02677	0.03241	0.03275	0.03256	0.03248	0.03166	0.03392	0.03036	0.0307
3243.682	3082.92	0.03376	0.0313	0.03113	0.03322	0.03268	0.03195	0.03181	0.03551	0.03487	0.02107	0.02072	0.02648	0.02685	0.02667	0.02666	0.02582	0.02807	0.02449	0.02486
3254.288	3072.87	0.02924	0.02712	0.02699	0.02904	0.0285	0.0276	0.02745	0.031	0.03035	0.01664	0.0163	0.0221	0.02251	0.02244	0.02246	0.02154	0.02382	0.02026	0.02069
3264.895	3062.89	0.02606	0.02391	0.02387	0.02603	0.02543	0.02449	0.02429	0.02772	0.02706	0.0134	0.01304	0.01873	0.01925	0.01934	0.01936	0.01852	0.02086	0.01714	0.01754
3275.501	3052.97	0.02408	0.02156	0.02147	0.02386	0.02319	0.0223	0.02214	0.02535	0.02481	0.01116	0.01075	0.01648	0.01705	0.01729	0.0172	0.01633	0.01872	0.01509	0.01547
3286.108	3043.11	0.02257	0.01998	0.01996	0.02241	0.0218	0.02093	0.02079	0.02348	0.02314	0.00979	0.009479	0.01506	0.01573	0.01573	0.01582	0.01483	0.0172	0.01371	0.01417
3296.715	3033.32	0.02132	0.0192	0.0192	0.02151	0.02079	0.01998	0.01979	0.02211	0.02183	0.008716	0.008437	0.01395	0.01461	0.0147	0.01475	0.01375	0.01614	0.01261	0.01308
3307.321	3023.6	0.02085	0.01888	0.01888	0.02105	0.02042	0.01952	0.01934	0.02165	0.02137	0.008167	0.007849	0.01328	0.01402	0.01429	0.01439	0.01332	0.01571	0.01211	0.01255
3317.928	3013.93	0.02127	0.01911	0.01911	0.02139	0.02074	0.01985	0.01966	0.02195	0.02167	0.008415	0.008176	0.01358	0.01434	0.01453	0.01457	0.01371	0.01617	0.01254	0.01296
3328.534	3004.33	0.02182	0.01944	0.01945	0.02203	0.02135	0.02045	0.02025	0.02244	0.0222	0.008911	0.008703	0.01409	0.01485	0.01504	0.01514	0.01409	0.01658	0.0131	0.01356
3339.141	2994.78	0.02188	0.01981	0.01982	0.02243	0.02178	0.02077	0.02059	0.02265	0.02246	0.009226	0.009027	0.01425	0.01502	0.0153	0.0155	0.01446	0.01687	0.01336	0.01378
3349.747	2985.3	0.02154	0.01985	0.01992	0.02215	0.02153	0.02053	0.02034	0.02234	0.02219	0.009	0.008787	0.01409	0.01488	0.01506	0.01525	0.01428	0.01676	0.01313	0.01366
3360.354	2975.88	0.02074	0.01878	0.01884	0.02127	0.02063	0.0196	0.01945	0.02188	0.02155	0.0078	0.00761	0.01307	0.01382	0.01435	0.01452	0.01337	0.0159	0.01214	0.01272
3370.961	2966.51	0.01921	0.01722	0.01724	0.0198	0.01915	0.01828	0.01808	0.02066	0.02025	0.006445	0.006308	0.01166	0.01237	0.01294	0.01308	0.01195	0.01447	0.01086	0.01139
3381.567	2957.21	0.01725	0.01569	0.01564	0.01817	0.01756	0.01668	0.0165	0.01868	0.01841	0.005028	0.004892	0.01007	0.01076	0.01129	0.01155	0.01035	0.01284	0.009386	0.009963
3392.174	2947.96	0.01518	0.01392	0.01399	0.01613	0.01556	0.01467	0.01451	0.01641	0.01623	0.003072	0.002893	0.008074	0.0088	0.009284	0.00967	0.008393	0.0109	0.007252	0.007866
3402.78	2938.77	0.01326	0.01205	0.01212	0.01415	0.01364	0.01276	0.01259	0.0144	0.01429	0.00107	0.0009173	0.006185	0.006934	0.007535	0.00788	0.006568	0.009089	0.005432	0.006061
3413.387	2929.64	0.01147	0.01038	0.01043	0.01247	0.01191	0.01115	0.01091	0.01282	0.01267	-0.0004774	-0.0006509	0.004637	0.005371	0.005921	0.006251	0.005015	0.007544	0.004018	0.004628
3423.993	2920.57	0.009737	0.008916	0.008942	0.01117	0.01063	0.009883	0.009621	0.01156	0.01137	-0.001517	-0.001647	0.003344	0.004071	0.004558	0.004861	0.003865	0.00633	0.002854	0.003515
3434.6	2911.55	0.008057	0.007893	0.007955	0.009652	0.009146	0.008583	0.008331	0.01011	0.009921	-0.002641	-0.002684	0.002138	0.00285	0.003151	0.003458	0.002282	0.004733	0.001361	0.001994
3445.206	2902.58	0.007438	0.007279	0.007358	0.008738	0.008309	0.007707	0.007482	0.009257	0.009158	-0.003547	-0.003676	0.001213	0.00188	0.002469	0.002793	0.001566	0.004058	0.0005562	0.001113
3455.813	2893.68	0.006387	0.006379	0.006326	0.007539	0.007098	0.006749	0.006506	0.007747	0.00767	-0.00445	-0.00445	0.0002606	0.0008607	0.001279	0.001549	0.0005867	0.00299	-0.0005208	-5.52E-09
3466.42	2884.82	0.005054	0.004992	0.004966	0.006383	0.005956	0.005586	0.005239	0.006617	0.006583	-0.005352	-0.005438	-0.0009112	-0.0002606	8.675E-5	0.0003648	-0.000521	0.001736	-0.001474	-0.001041
3477.026	2876.02	0.003878	0.004119	0.004071	0.005208	0.004905	0.004676	0.0044	0.005621	0.005602	-0.006081	-0.006209	-0.00182	-0.001214	-0.0008244	-0.0005209	-0.001647	0.0006214	-0.002555	-0.002036
3487.633	2867.27	0.003099	0.003344	0.003348	0.004137	0.003887	0.003532	0.003248	0.004588	0.004586	-0.00715	-0.007364	-0.00303	-0.002382	-0.001907	-0.001604	-0.002814	-0.0004776	-0.003676	-0.003202
3498.239	2858.58	0.002443	0.002544	0.002443	0.003094	0.002749	0.002666	0.002443	0.003773	0.003812	-0.008004	-0.008259	-0.003805	-0.003245	-0.002684	-0.002382	-0.003547	-0.001301	-0.004536	-0.004106
3508.846	2849.94	0.002046	0.001706	0.001688	0.002365	0.002125	0.001954	0.001802	0.003296	0.003333	-0.00843	-0.00877	-0.004493	-0.003891	-0.003116	-0.002857	-0.003977	-0.00182	-0.005095	-0.004665
3519.452	2841.35	0.0007346	0.0008433	0.0008259	0.001405	0.001257	0.001139	0.001013	0.002426	0.002527	-0.008898	-0.009196	-0.005138	-0.004536	-0.004106	-0.003719	-0.004708	-0.002555	-0.005824	-0.005481
3530.059	2832.81	0.0001303	0.0003606	0.0003519	0.0007041	0.0006476	0.0005215	0.0004041	0.002077	0.002223	-0.009493	-0.009833	-0.005738	-0.005095	-0.004536	-0.004063	-0.005266	-0.003073	-0.00638	-0.005995
3540.666	2824.33	-0.0003906	0.0001086	2.606E-5	-0.0001303	-0.0001303	-4.35E-05	-0.0001737	0.001514	0.001674	-0.009961	-0.01038	-0.006124	-0.005524	-0.005266	-0.004794	-0.005824	-0.003762	-0.007107	-0.006723
3551.272	2815.89	-8.68E-05	-0.0004775	-0.0005208	-0.0003473	-0.0003473	-0.0005208	-0.0006076	0.001344	0.001561	-0.01022	-0.01064	-0.006423	-0.005781	-0.005524	-0.005095	-0.006081	-0.00402	-0.007449	-0.007065
3561.879	2807.51	-0.0007376	-0.0006942	-0.0006942	-0.0004341	-0.0003907	-0.0005208	-0.0005642	0.001767	0.002005	-0.01009	-0.01068	-0.006466	-0.005952	-0.005695	-0.005095	-0.006166	-0.004192	-0.007534	-0.007107
3572.485	2799.17	3.485E-5	0.0002824	0.0002433	2.608E-5	0.0001173	0.0002129	6.951E-5	0.002295	0.002413	-0.008941	-0.009408	-0.005824	-0.005309	-0.00518	-0.004622	-0.005824	-0.003848	-0.007065	-0.00668
3583.092	2790.89	0.0006302	0.001758	0.001719	0.0008216	0.0009826	0.00134	0.001266	0.003694	0.00371	-0.007705	-0.008259	-0.004708	-0.004192	-0.004235	-0.003633	-0.004837	-0.0029	-0.006423	-0.005952
3593.698	2782.65	0.003686	0.004014	0.004124	0.003677	0.003813	0.00369	0.003611	0.006564	0.006576	-0.004837	-0.005438	-0.00195	-0.001301	-0.001733	-0.0008242	-0.002425	-0.0004773	-0.00402	-0.003417
3604.305	2774.46	0.006573	0.007769	0.007787	0.007526	0.007809	0.007804	0.007774	0.01095	0.01094	-0.0005208	-0.001041	0.002151	0.002684	0.00202	0.002915	0.001414	0.003493	6.724E-9	0.000839
3614.912	2766.32	0.009182	0.01034	0.01052	0.01047	0.01083	0.01079	0.01084	0.01524	0.0152	0.001959	0.001209	0.004808	0.00552	0.005423	0.006511	0.004817	0.007036	0.003033	0.003843
3625.518	2758.23	0.009595	0.01284	0.01271	0.01147	0.01192	0.01215	0.01203	0.01642	0.01593	0.004554	0.003935	0.006714	0.007159	0.006123	0.00708	0.0053	0.007283	0.003961	0.004808
3636.125	2750.18	0.01322	0.01355	0.01346	0.01235	0.01262	0.01295	0.01283	0.01761	0.01722	0.004988	0.004312	0.007517	0.008017	0.007062	0.007906	0.006445	0.008437	0.004848	0.005437
3646.731	2742.18	0.01242	0.01414	0.01383	0.01279	0.01302	0.01375	0.01369	0.01879	0.01851	0.005291	0.004474	0.008397	0.008765	0.007946	0.008712	0.007743	0.009737	0.005533	0.006251
3657.338	2734.23	0.01447	0.01536	0.01512	0.0139	0.01423	0.01525	0.01509	0.01957	0.01927	0.007411	0.00693	0.009661	0.009963	0.008938	0.00959	0.008668	0.01047	0.007349	0.007804
3667.944	2726.32	0.01463	0.01735	0.01689	0.01519	0.01559	0.01676	0.01666	0.02149	0.02122	0.008987	0.008353	0.01142	0.01175	0.01031	0.01093	0.01022	0.01199	0.00877	0.009235
3678.551	2718.46	0.01839	0.0193	0.01909	0.01811	0.01837	0.01927	0.01892	0.02408	0.02382	0.011	0.01029	0.01341	0.0139	0.01291	0.01386	0.01259	0.01443	0.01106	0.01143
3689.158	2710.65	0.0189	0.02027	0.0201	0.01967	0.01997	0.02019	0.02001	0.02524	0.02492	0.01241	0.01138	0.0147	0.0149	0.01389	0.01487	0.01345	0.01516	0.0122	0.01254
3699.764	2702.87	0.0207	0.02191	0.02176	0.02042	0.02077	0.02157	0.02126	0.02564	0.02538	0.01488	0.01413	0.01614	0.01647	0.01471	0.01556	0.01417	0.01584	0.01333	0.01374
3710.371	2695.15	0.02159	0.02257	0.02247	0.02189	0.02222	0.02254	0.02228	0.02745	0.02705	0.01486	0.01395	0.01659	0.01714	0.01614	0.01722	0.01559	0.01716	0.01444	0.01465
3720.977	2687.47	0.02365	0.0245	0.02443	0.02342	0.02365	0.02419	0.02391	0.02895	0.02857	0.01674	0.01594	0.01845	0.0188	0.01762	0.01878	0.01687	0.01859	0.01539	0.01585
3731.584	2679.83	0.02359	0.02603	0.02576	0.02499	0.02535	0.02568	0.02545	0.0304	0.02991	0.01829	0.0172	0.02016	0.02031	0.01876	0.01987	0.01853	0.02008	0.01688	0.01761
3742.19	2672.23	0.02487	0.02816	0.02789	0.02644	0.02684	0.02786	0.02774	0.03201	0.03179	0.0206	0.01998	0.02279	0.02268	0.02069	0.02136	0.02092	0.02247	0.01937	0.01986
3752.797	2664.68	0.0276	0.02984	0.02957	0.02931	0.0296	0.03045	0.0302	0.0357	0.03533	0.02204	0.02125	0.02456	0.02488	0.02411	0.02472	0.02391	0.02568	0.02233	0.02283
3763.404	2657.17	0.03109	0.03248	0.03207	0.03093	0.03126	0.03224	0.03208	0.03737	0.03702	0.02397	0.02324	0.02664	0.02691	0.02555	0.02621	0.02535	0.02708	0.02366	0.02405
3774.01	2649.7	0.0328	0.0344	0.03395	0.03233	0.03264	0.03395	0.03375	0.03871	0.03835	0.02569	0.02499	0.02852	0.02871	0.02704	0.02764	0.02683	0.02864	0.02518	0.02559
3784.617	2642.28	0.03526	0.03585	0.03542	0.03456	0.03486	0.03583	0.03567	0.04083	0.04053	0.02731	0.02654	0.03033	0.03054	0.02917	0.0298	0.02887	0.03079	0.02716	0.02744
3795.223	2634.89	0.0353	0.03635	0.03584	0.03518	0.03552	0.03656	0.03633	0.04189	0.04154	0.02797	0.02721	0.0311	0.03138	0.02975	0.03027	0.02951	0.03146	0.02789	0.02835
3805.83	2627.55	0.03589	0.03774	0.03729	0.03644	0.0368	0.03783	0.03755	0.04328	0.04275	0.02923	0.02857	0.03218	0.0325	0.03102	0.03161	0.03074	0.0325	0.02915	0.0294
3816.436	2620.25	0.03736	0.03995	0.03951	0.03869	0.03901	0.04005	0.03985	0.04518	0.04483	0.03127	0.03044	0.03456	0.03481	0.033	0.03376	0.03292	0.03484	0.0311	0.03148
3827.043	2612.98	0.04051	0.04084	0.04058	0.03977	0.04004	0.04113	0.04087	0.04591	0.04561	0.03225	0.0313	0.03545	0.03583	0.03422	0.03492	0.03405	0.036	0.03197	0.03238
3837.65	2605.76	0.03874	0.0399	0.03947	0.04024	0.04044	0.04097	0.04064	0.04631	0.04607	0.03172	0.03073	0.03503	0.03551	0.03446	0.03511	0.03434	0.03648	0.03193	0.03245
3848.256	2598.58	0.03896	0.04143	0.04087	0.0403	0.04062	0.04167	0.04157	0.04645	0.04627	0.03304	0.03233	0.03598	0.03632	0.03474	0.03537	0.03465	0.0365	0.03273	0.03327
3858.863	2591.44	0.04067	0.04247	0.04211	0.04112	0.0414	0.04253	0.04236	0.04718	0.04707	0.03367	0.03297	0.03667	0.03707	0.0355	0.03625	0.03541	0.03737	0.03341	0.03384
3869.469	2584.33	0.04194	0.0435	0.04299	0.04199	0.04229	0.04357	0.04347	0.04823	0.04799	0.03471	0.03409	0.03788	0.03838	0.03654	0.03719	0.03637	0.03832	0.03433	0.03475
3880.076	2577.27	0.04311	0.04414	0.04372	0.04275	0.04307	0.04412	0.04397	0.04907	0.0488	0.0356	0.03508	0.03883	0.03912	0.03732	0.03789	0.03705	0.03902	0.0351	0.0355
3890.682	2570.24	0.04362	0.04422	0.04367	0.04312	0.04338	0.04441	0.04429	0.04975	0.04929	0.03601	0.03531	0.0389	0.03924	0.0376	0.03816	0.03724	0.03924	0.03551	0.03578
3901.289	2563.26	0.04391	0.04504	0.04459	0.04363	0.04382	0.0451	0.04491	0.05081	0.05041	0.03642	0.03572	0.03931	0.03979	0.03818	0.0389	0.03793	0.04013	0.03597	0.03636
3911.896	2556.31	0.0441	0.04538	0.04498	0.04326	0.04352	0.04517	0.04491	0.04996	0.04942	0.03663	0.03614	0.03978	0.04008	0.03782	0.03846	0.03764	0.03962	0.036	0.03624
3922.502	2549.39	0.04466	0.04513	0.04479	0.04383	0.04415	0.04539	0.04518	0.05033	0.04998	0.03671	0.03615	0.03981	0.04022	0.03844	0.03915	0.03813	0.04023	0.03629	0.03668
3933.109	2542.52	0.04513	0.04569	0.04533	0.04466	0.04486	0.04608	0.04578	0.05064	0.05045	0.03761	0.03705	0.04035	0.04077	0.03892	0.0396	0.03875	0.04079	0.03715	0.03739
3943.715	2535.68	0.04623	0.04688	0.04654	0.04533	0.04561	0.04698	0.04686	0.05161	0.05135	0.03859	0.03807	0.04124	0.0416	0.03987	0.04052	0.03962	0.04166	0.03783	0.03815
3954.322	2528.88	0.04762	0.04874	0.04822	0.04675	0.047	0.04838	0.0481	0.05287	0.05258	0.03985	0.03932	0.04305	0.04339	0.0412	0.04182	0.04097	0.04294	0.03917	0.03948
3964.928	2522.11	0.04893	0.05008	0.04964	0.0482	0.04855	0.04997	0.04967	0.0541	0.05374	0.04147	0.04101	0.04466	0.045	0.04262	0.04328	0.04235	0.04439	0.04069	0.04106
3975.535	2515.38	0.05075	0.0514	0.05101	0.05017	0.05045	0.05168	0.05142	0.056	0.05577	0.04322	0.04266	0.04611	0.04645	0.04439	0.04499	0.04419	0.04631	0.04243	0.04279
3986.141	2508.69	0.05429	0.0554	0.05486	0.05379	0.05406	0.05548	0.05511	0.05989	0.05961	0.04692	0.04647	0.04993	0.05013	0.04804	0.04868	0.04776	0.04985	0.0462	0.04669
3996.748	2502.03	0.05995	0.06112	0.06055	0.05907	0.05927	0.06101	0.06072	0.066	0.06542	0.05235	0.05192	0.05546	0.05561	0.05342	0.05408	0.0531	0.05524	0.0512	0.05174
3999.641	2500.22	0.06156	0.0626	0.06211	0.0605	0.06076	0.06249	0.0622	0.06772	0.06706	0.05379	0.05337	0.05693	0.05714	0.05484	0.05547	0.05448	0.05663	0.05265	0.05322