File: PROJECT/FTIR Merged/kraft paper and copper A.dat
Wavelength [nm]	Wavenumbers [1/cm]	Kraft paper and copper ambient - averaged	Kraft paper and copper 1  7 days  - averaged	Kraft paper and copper 2  7 days - averaged	Kraft paper and Copper 1 14 days - averaged	Kraft Paper and copper 2 15 days - averaged	Kraft paper and copper 1  19 days - averaged	Kraft paper and Copper 2 18 days - averaged	Kraft paper and Copper 1 21 days - averaged	Kraft paper and Copper 2 21 days - averaged	Kraft paper and Copper 1 28 days - averaged	Kraft paper and Copper 2 28 days - averaged	Kraft paper and Copper 1 35 days - averaged	Kraft paper and Copper 2 35 days - averaged	Kraft paper and copper 1  42 days  - averaged	Kraft paper and Copper 2 42 days - averaged	Kraft paper and Copper 1 49 days - averaged	Kraft paper and Copper 2 50 days - averaged	Kraft paper and Copper 1 56 days - averaged	Kraft paper and Copper 2 56 days - averaged	Kraft paper and Copper 1 63 days - averaged	Kraft paper and Copper 2 63 days - averaged	Kraft paper and copper 1  70 days - averaged	Kraft paper and copper 2  67 days - averaged	Kraft paper and copper 1  77 days - averaged	Kraft paper and copper 2  74 days - averaged	Kraft paper and copper 1  83 days - averaged	Kraft paper and copper 2  80 days  - averaged
899.630	11115.68	0.1723	0.1777	0.1816	0.1835	0.1806	0.1635	0.1716	0.1688	0.1711	0.1904	0.1677	0.1729	0.1752	0.1873	0.1752	0.1765	0.1748	0.1881	0.1819	0.1892	0.176	0.1857	0.1966	0.2019	0.1955	0.1864	0.1928
914.094	10939.80	0.1864	0.1837	0.188	0.1897	0.1853	0.1727	0.1794	0.1778	0.1809	0.1982	0.1819	0.1794	0.1817	0.1924	0.1795	0.1842	0.1834	0.197	0.1861	0.1908	0.1854	0.1943	0.2005	0.2022	0.1979	0.2002	0.2059
928.557	10769.40	0.2003	0.2004	0.2022	0.2024	0.1983	0.1901	0.1959	0.1952	0.1975	0.2105	0.1971	0.1942	0.1994	0.2033	0.1964	0.2027	0.1947	0.2083	0.202	0.2085	0.2022	0.2097	0.2154	0.2174	0.214	0.2125	0.2177
943.021	10604.22	0.2132	0.2103	0.2133	0.2117	0.2085	0.1992	0.207	0.2065	0.2092	0.2195	0.2089	0.2057	0.209	0.2115	0.2069	0.2121	0.2047	0.2184	0.212	0.2175	0.2122	0.2185	0.2227	0.2266	0.2236	0.2211	0.2246
957.484	10444.04	0.2177	0.2163	0.2193	0.218	0.2156	0.2082	0.212	0.2114	0.2164	0.2246	0.2154	0.21	0.2122	0.2177	0.2111	0.2166	0.2119	0.2243	0.2174	0.2235	0.2184	0.2261	0.228	0.2332	0.2319	0.2271	0.2312
971.948	10288.62	0.228	0.2271	0.2276	0.2278	0.2266	0.2191	0.2229	0.2236	0.2253	0.2335	0.2249	0.219	0.2239	0.2295	0.2215	0.2282	0.2221	0.2343	0.2284	0.2354	0.2305	0.2385	0.2396	0.2426	0.2408	0.2386	0.2425
986.411	10137.76	0.1819	0.1811	0.182	0.1825	0.1799	0.1733	0.1783	0.1786	0.1774	0.1875	0.1798	0.1778	0.1798	0.1851	0.1784	0.1842	0.1783	0.191	0.1837	0.1914	0.1877	0.1935	0.1947	0.1979	0.1967	0.1976	0.2014
1000.875	9991.26	0.1778	0.1807	0.1804	0.1818	0.1783	0.1727	0.1753	0.1762	0.1761	0.186	0.1785	0.1755	0.1766	0.1839	0.1752	0.182	0.1776	0.1887	0.1814	0.1893	0.1857	0.1916	0.193	0.1977	0.1962	0.1959	0.1996
1015.338	9848.94	0.1748	0.178	0.1767	0.1798	0.1768	0.1728	0.1749	0.1766	0.1724	0.1843	0.1772	0.1729	0.1767	0.1855	0.1753	0.1821	0.1778	0.1904	0.1819	0.1912	0.1873	0.1935	0.1952	0.1984	0.1964	0.1943	0.1981
1029.802	9710.61	0.1864	0.1874	0.1862	0.1891	0.1865	0.1801	0.1838	0.1855	0.183	0.1919	0.1849	0.1829	0.1859	0.1943	0.1847	0.191	0.1864	0.1986	0.1909	0.1986	0.1961	0.2017	0.2029	0.2063	0.2033	0.2037	0.2077
1044.265	9576.11	0.1643	0.1697	0.168	0.1716	0.1677	0.1617	0.165	0.1664	0.1668	0.174	0.1677	0.1658	0.1664	0.1751	0.165	0.1719	0.1677	0.1792	0.1708	0.1799	0.1761	0.1819	0.1833	0.1881	0.1862	0.1855	0.1896
1058.729	9445.29	0.1652	0.1724	0.1683	0.1739	0.1717	0.1652	0.1679	0.1695	0.169	0.1748	0.1698	0.1662	0.168	0.1804	0.1671	0.174	0.1713	0.1834	0.174	0.1838	0.1794	0.1862	0.1879	0.1913	0.1889	0.1839	0.1875
1073.192	9318.00	0.1713	0.1721	0.1704	0.1741	0.1725	0.1654	0.1697	0.1709	0.1697	0.175	0.1707	0.1679	0.1714	0.1811	0.1701	0.1772	0.1737	0.1847	0.1767	0.1862	0.183	0.1892	0.1906	0.1929	0.1908	0.1871	0.1906
1087.656	9194.09	0.1623	0.1623	0.1635	0.164	0.162	0.1558	0.1595	0.1608	0.1623	0.167	0.1623	0.1616	0.1623	0.1681	0.1608	0.1683	0.1627	0.1742	0.1679	0.1763	0.1739	0.1797	0.1805	0.1861	0.1843	0.1811	0.1846
1102.119	9073.43	0.1519	0.1526	0.1531	0.1542	0.1524	0.1494	0.1512	0.1524	0.1534	0.1583	0.1542	0.1511	0.1529	0.1591	0.1517	0.1595	0.1536	0.1662	0.1595	0.1694	0.1666	0.1729	0.1738	0.1793	0.1774	0.1738	0.1774
1116.583	8955.90	0.1488	0.1475	0.1482	0.1492	0.1482	0.1451	0.1485	0.1498	0.1489	0.1536	0.1496	0.1484	0.1515	0.1582	0.1505	0.1596	0.1537	0.1666	0.1596	0.1695	0.168	0.1742	0.175	0.1793	0.1779	0.175	0.1787
1131.046	8841.37	0.1626	0.1642	0.163	0.1657	0.1636	0.1566	0.1607	0.1621	0.1646	0.1679	0.1637	0.1641	0.1646	0.1738	0.1633	0.1735	0.1675	0.1799	0.1724	0.1832	0.1807	0.1873	0.1882	0.1946	0.1928	0.1899	0.1936
1145.510	8729.74	0.2021	0.2035	0.202	0.2055	0.2036	0.1976	0.1994	0.2008	0.2043	0.2074	0.2037	0.201	0.2019	0.2115	0.2006	0.211	0.2056	0.2185	0.2109	0.2222	0.2195	0.2265	0.2277	0.2349	0.2334	0.2253	0.229
1159.973	8620.89	0.2348	0.2313	0.2322	0.2334	0.233	0.2289	0.2305	0.2319	0.2349	0.2364	0.2331	0.2297	0.233	0.2405	0.2321	0.2418	0.2361	0.2495	0.2427	0.2535	0.252	0.2583	0.2593	0.2651	0.2635	0.2542	0.2581
1174.437	8514.72	0.2012	0.1986	0.2004	0.2007	0.1993	0.1939	0.197	0.1983	0.2029	0.2041	0.2003	0.1994	0.2014	0.2071	0.2006	0.21	0.2035	0.216	0.2102	0.2205	0.2195	0.2254	0.2264	0.2336	0.2322	0.2275	0.2314
1188.900	8411.14	0.1645	0.1648	0.1658	0.1668	0.1648	0.1611	0.1632	0.1643	0.168	0.1707	0.1672	0.1664	0.1664	0.172	0.1653	0.1745	0.1683	0.1806	0.1748	0.185	0.1831	0.1901	0.1912	0.1985	0.1973	0.1947	0.1985
1203.364	8310.04	0.1732	0.1722	0.1728	0.174	0.173	0.1708	0.1725	0.1736	0.1743	0.1776	0.1747	0.173	0.1747	0.1816	0.1737	0.1826	0.1772	0.1902	0.1835	0.1942	0.1917	0.1987	0.1998	0.2044	0.2034	0.2018	0.2055
1217.827	8211.35	0.1827	0.183	0.1828	0.1847	0.1832	0.1778	0.181	0.1823	0.1835	0.1869	0.1834	0.1833	0.1849	0.1929	0.1837	0.1933	0.1882	0.1998	0.1932	0.2035	0.2016	0.2083	0.2096	0.2148	0.2137	0.2134	0.2173
1232.291	8114.97	0.1937	0.1954	0.1944	0.1973	0.1953	0.1894	0.1917	0.1929	0.1959	0.1998	0.1961	0.1962	0.1958	0.204	0.1948	0.2053	0.1995	0.2126	0.2053	0.2167	0.2145	0.222	0.2234	0.2307	0.2298	0.2272	0.2308
1246.754	8020.83	0.2291	0.2303	0.2277	0.2316	0.2305	0.2253	0.2265	0.2278	0.229	0.2327	0.2297	0.2279	0.229	0.2403	0.2276	0.2385	0.2347	0.2472	0.2394	0.2519	0.249	0.257	0.2583	0.2643	0.2624	0.2595	0.2632
1261.218	7928.85	0.2617	0.2604	0.2602	0.2621	0.2611	0.2552	0.2573	0.2586	0.2611	0.2637	0.2605	0.2586	0.2614	0.2699	0.2599	0.2707	0.2652	0.2776	0.2714	0.2827	0.2806	0.2879	0.2891	0.2951	0.2938	0.2928	0.2961
1275.681	7838.95	0.2874	0.2867	0.2863	0.2882	0.2872	0.2796	0.2816	0.2831	0.2879	0.29	0.2869	0.285	0.2861	0.2941	0.2847	0.2958	0.2902	0.3028	0.2963	0.3075	0.3059	0.3135	0.3147	0.3224	0.3218	0.3223	0.3258
1290.145	7751.07	0.3167	0.3175	0.3138	0.3186	0.3179	0.3094	0.3105	0.3118	0.3151	0.3174	0.3145	0.3113	0.3127	0.3259	0.3105	0.3225	0.3191	0.3319	0.3231	0.3364	0.3332	0.3418	0.3432	0.3499	0.3481	0.351	0.3548
1304.608	7665.14	0.3683	0.3674	0.3642	0.3689	0.3689	0.3581	0.3599	0.3609	0.3656	0.3655	0.3629	0.3583	0.3617	0.3751	0.3586	0.3706	0.3677	0.3791	0.3712	0.3827	0.3802	0.3877	0.3888	0.3951	0.3931	0.3968	0.4005
1319.072	7581.09	0.343	0.3423	0.3414	0.3433	0.3426	0.3327	0.3348	0.3359	0.3416	0.342	0.339	0.3352	0.3372	0.346	0.334	0.3432	0.3397	0.3507	0.3436	0.3525	0.3502	0.357	0.358	0.3626	0.3614	0.3622	0.3655
1333.535	7498.87	0.4143	0.4124	0.4098	0.413	0.4131	0.4026	0.4043	0.4052	0.4106	0.4103	0.4076	0.4016	0.4041	0.4138	0.4001	0.4091	0.4068	0.4173	0.4102	0.4191	0.4161	0.4228	0.4236	0.4279	0.4265	0.4266	0.4299
1347.999	7418.41	0.5165	0.5169	0.5113	0.5178	0.5184	0.5036	0.5055	0.5065	0.5121	0.5115	0.5082	0.5011	0.5057	0.5218	0.5001	0.513	0.5118	0.5242	0.5139	0.5249	0.5216	0.5289	0.5304	0.5351	0.5329	0.5344	0.5383
1362.462	7339.65	0.8936	0.8821	0.8815	0.8791	0.8856	0.8626	0.8589	0.8621	0.8798	0.8732	0.8661	0.8505	0.8606	0.8741	0.8457	0.8644	0.8647	0.878	0.8681	0.8776	0.8751	0.8822	0.8835	0.8908	0.8869	0.8915	0.8947
1376.926	7262.56	2.382	2.336	2.327	2.134	2.344	2.279	2.181	2.253	2.303	2.286	2.104	2.152	2.264	2.31	1.959	2.275	2.309	2.299	2.276	2.273	2.279	2.296	2.31	2.328	2.286	2.306	2.325
1391.389	7187.06	0.3682	0.3916	0.3694	0.3934	0.3894	0.3655	0.3712	0.3723	0.3685	0.3726	0.369	0.3684	0.3661	0.4047	0.3615	0.373	0.379	0.3898	0.3706	0.3859	0.3756	0.3864	0.3901	0.3875	0.3839	0.3769	0.381
1405.853	7113.12	0.2445	0.2516	0.246	0.2517	0.2502	0.2407	0.2439	0.2446	0.246	0.2482	0.2451	0.2436	0.2447	0.258	0.2416	0.2495	0.2487	0.2574	0.2488	0.258	0.2538	0.2609	0.2627	0.2642	0.2629	0.2598	0.263
1420.316	7040.69	0.3497	0.3523	0.3498	0.3503	0.3493	0.3416	0.3433	0.3442	0.3488	0.3497	0.3468	0.343	0.3438	0.3543	0.3402	0.3471	0.3457	0.3569	0.3484	0.3571	0.3531	0.3605	0.3622	0.3632	0.3618	0.3599	0.3629
1434.780	6969.71	1.078	1.058	1.057	1.052	1.064	1.032	1.03	1.033	1.057	1.046	1.032	1.012	1.027	1.042	1.003	1.027	1.034	1.043	1.03	1.039	1.037	1.041	1.043	1.051	1.047	1.057	1.06
1449.243	6900.15	3.621	3.218	3.28	2.536	3.398	3.248	2.733	3.118	3.239	3.294	2.455	2.648	3.263	3.237	2.17	3.184	3.272	3.238	3.123	3.069	3.091	3.164	3.246	3.468	3.084	3.386	3.316
1463.707	6831.97	4.541	3.508	3.459	2.6	3.539	3.471	2.857	3.402	3.381	3.613	2.492	2.737	3.952	3.741	2.219	3.693	5.018	3.842	3.633	3.541	3.543	3.658	4.021	6	3.54	3.707	3.939
1478.170	6765.12	0.8463	0.8726	0.8342	0.8724	0.8727	0.8184	0.824	0.8262	0.8293	0.8264	0.8173	0.8065	0.8059	0.8672	0.7895	0.8054	0.8269	0.8314	0.8019	0.8203	0.8032	0.8143	0.8196	0.8142	0.8069	0.8091	0.8151
1492.634	6699.57	0.3535	0.3628	0.3515	0.3629	0.3621	0.343	0.3446	0.3453	0.3473	0.3466	0.3425	0.3377	0.3369	0.3583	0.3304	0.334	0.34	0.3445	0.3328	0.3402	0.3316	0.3382	0.3404	0.3365	0.3345	0.3316	0.3347
1507.097	6635.27	0.198	0.2027	0.2023	0.2003	0.1987	0.1912	0.1904	0.1907	0.1957	0.1975	0.194	0.1916	0.1902	0.2003	0.186	0.1868	0.1882	0.1976	0.1881	0.1939	0.1866	0.1937	0.1957	0.1903	0.1907	0.1844	0.1858
1521.561	6572.20	0.1108	0.1147	0.1151	0.1128	0.1111	0.107	0.1074	0.1075	0.1104	0.1125	0.11	0.1096	0.1086	0.1161	0.1055	0.1064	0.1067	0.1152	0.1078	0.1129	0.1071	0.1131	0.1148	0.1096	0.1104	0.1052	0.1068
1536.024	6510.31	0.07917	0.08317	0.08261	0.08199	0.08093	0.07743	0.07778	0.0776	0.07983	0.08097	0.07912	0.07875	0.07869	0.08409	0.07552	0.07731	0.07706	0.08264	0.07783	0.08152	0.07704	0.08157	0.08283	0.08022	0.08077	0.07639	0.0783
1550.488	6449.58	0.06206	0.06506	0.06405	0.06437	0.06351	0.06021	0.06095	0.06088	0.06237	0.06412	0.06267	0.06174	0.06211	0.06671	0.05886	0.06122	0.06056	0.06553	0.06124	0.06534	0.06142	0.06626	0.06734	0.06572	0.06616	0.06207	0.06424
1564.951	6389.98	0.05706	0.05878	0.05791	0.05847	0.05719	0.05504	0.05691	0.05717	0.05725	0.059	0.05744	0.05808	0.05801	0.06266	0.05511	0.05812	0.057	0.06311	0.05899	0.06422	0.0605	0.06537	0.06645	0.06497	0.06544	0.06189	0.06432
1579.415	6331.46	0.07716	0.07879	0.07806	0.07875	0.07787	0.07628	0.0769	0.07742	0.07799	0.079	0.07713	0.07819	0.07838	0.0824	0.075	0.07986	0.07734	0.0833	0.08026	0.08558	0.0825	0.08659	0.08764	0.08842	0.08815	0.08571	0.08833
1593.878	6274.01	0.08922	0.09008	0.08918	0.09055	0.08977	0.08844	0.08793	0.08888	0.08972	0.09158	0.08951	0.09018	0.09016	0.09485	0.08702	0.09332	0.09023	0.09704	0.09328	0.09975	0.09702	0.102	0.1031	0.1052	0.1047	0.1025	0.1053
1608.342	6217.58	0.1194	0.1183	0.1178	0.119	0.1178	0.1159	0.116	0.1173	0.1176	0.1195	0.1166	0.1175	0.1169	0.1227	0.114	0.1198	0.1172	0.1252	0.1205	0.1283	0.125	0.1307	0.1317	0.1327	0.1322	0.1308	0.1337
1622.805	6162.17	0.04704	0.04961	0.04897	0.04976	0.04836	0.04678	0.04783	0.04822	0.04868	0.0509	0.04858	0.05101	0.05065	0.05597	0.04826	0.05344	0.05093	0.05812	0.05406	0.06014	0.05745	0.06213	0.0632	0.06401	0.06394	0.06143	0.06417
1637.269	6107.73	0.03427	0.03722	0.03648	0.03732	0.03638	0.03491	0.03495	0.03521	0.03624	0.03914	0.03716	0.03859	0.03836	0.04323	0.03574	0.04127	0.0387	0.0454	0.04117	0.04721	0.04425	0.04908	0.05025	0.05138	0.05148	0.04814	0.0507
1651.732	6054.25	0.03256	0.03464	0.03361	0.03458	0.03379	0.03219	0.03399	0.0339	0.03388	0.03629	0.03528	0.03654	0.03622	0.04094	0.03441	0.03978	0.03752	0.04417	0.04012	0.0462	0.04409	0.04923	0.04989	0.05102	0.05149	0.0492	0.05192
1666.196	6001.70	0.03257	0.03512	0.03482	0.03596	0.03447	0.03287	0.03494	0.03516	0.03539	0.03787	0.03571	0.0386	0.03815	0.04417	0.03686	0.04322	0.04049	0.04822	0.04384	0.05143	0.0493	0.05459	0.05573	0.05801	0.05783	0.05664	0.05959
1680.659	5950.05	0.03158	0.03585	0.03587	0.03807	0.036	0.03568	0.03537	0.03697	0.03749	0.04303	0.03931	0.0453	0.0435	0.05319	0.04401	0.05575	0.0505	0.06268	0.0558	0.06794	0.06575	0.07323	0.07476	0.08044	0.07974	0.08025	0.08359
1695.123	5899.28	0.0274	0.03169	0.03116	0.03505	0.03229	0.03364	0.03336	0.03631	0.03503	0.04239	0.03879	0.04738	0.04421	0.05737	0.04666	0.06293	0.05509	0.07228	0.06314	0.08144	0.07931	0.09021	0.09215	0.1011	0.09926	0.1045	0.1084
1709.586	5849.37	0.02155	0.02801	0.02779	0.0338	0.02912	0.0324	0.03259	0.03741	0.03515	0.04658	0.03977	0.05465	0.05	0.06983	0.05568	0.0808	0.06802	0.09498	0.08135	0.1094	0.1084	0.1224	0.1254	0.1402	0.1366	0.1475	0.1522
1724.050	5800.30	0.01918	0.02432	0.02351	0.02914	0.02589	0.02902	0.028	0.0321	0.03007	0.03971	0.03435	0.04724	0.04237	0.05807	0.04648	0.06904	0.05669	0.07978	0.06846	0.09183	0.09115	0.103	0.1052	0.1201	0.1167	0.1242	0.1288
1738.513	5752.04	0.01868	0.02018	0.02024	0.02301	0.02126	0.02277	0.02249	0.02484	0.02299	0.02952	0.0264	0.03427	0.03112	0.04214	0.03283	0.04987	0.03958	0.05868	0.04897	0.06706	0.0659	0.07644	0.078	0.09014	0.08745	0.08207	0.08676
1752.977	5704.58	0.01705	0.01811	0.01891	0.0197	0.01819	0.01761	0.01955	0.02093	0.01996	0.02319	0.0211	0.02546	0.02381	0.03099	0.0237	0.03314	0.02653	0.03988	0.03314	0.04477	0.04255	0.05022	0.05099	0.05712	0.05516	0.04759	0.05271
1767.440	5657.90	0.01463	0.01614	0.01684	0.01747	0.01671	0.01577	0.01695	0.01805	0.01783	0.02083	0.01897	0.02398	0.02167	0.02831	0.02147	0.03114	0.02424	0.03633	0.03063	0.042	0.03991	0.04779	0.04865	0.05529	0.05387	0.05565	0.05917
1781.904	5611.98	0.01253	0.01339	0.01387	0.01438	0.01386	0.01364	0.01355	0.01458	0.01432	0.01743	0.01609	0.02013	0.0178	0.02437	0.01726	0.02669	0.02031	0.03231	0.02633	0.03844	0.03558	0.04471	0.04547	0.05173	0.05043	0.0537	0.05657
1796.367	5566.79	0.01019	0.01067	0.01173	0.01114	0.01025	0.009204	0.01085	0.01146	0.01093	0.01249	0.01146	0.01328	0.01245	0.0161	0.01079	0.01464	0.01106	0.01901	0.01507	0.02218	0.01887	0.02548	0.02596	0.02681	0.02656	0.02655	0.0289
1810.831	5522.33	0.006678	0.007309	0.008056	0.007526	0.007036	0.005168	0.006934	0.007261	0.007371	0.008282	0.007411	0.008406	0.008216	0.009874	0.006075	0.007844	0.005146	0.01049	0.008233	0.01206	0.009199	0.01361	0.01377	0.01382	0.01419	0.01192	0.01402
1825.294	5478.57	0.006321	0.006123	0.006793	0.006282	0.00633	0.00563	0.005903	0.006101	0.005965	0.006775	0.006634	0.007155	0.006705	0.007111	0.004233	0.005665	0.002823	0.006881	0.005441	0.008021	0.005287	0.009248	0.009266	0.008575	0.009133	0.006286	0.008282
1839.758	5435.50	0.006815	0.006718	0.00738	0.006793	0.006511	0.005568	0.006899	0.007045	0.006634	0.006992	0.006952	0.006908	0.006806	0.007455	0.004356	0.004909	0.002657	0.00704	0.005415	0.008057	0.005151	0.009355	0.009315	0.007796	0.008433	0.006189	0.008123
1854.221	5393.10	0.008119	0.008349	0.008619	0.008282	0.008083	0.006009	0.008242	0.008318	0.00826	0.008327	0.008021	0.007915	0.008145	0.008508	0.005736	0.005797	0.003755	0.007703	0.006423	0.00842	0.005824	0.009328	0.009275	0.008468	0.009084	0.006312	0.008189
1868.685	5351.36	0.01063	0.01015	0.01093	0.01047	0.01037	0.009266	0.00963	0.009835	0.009741	0.01037	0.01011	0.01038	0.01022	0.01019	0.007385	0.008004	0.005657	0.008969	0.007712	0.009688	0.006899	0.01037	0.01045	0.00877	0.009404	0.006026	0.007964
1883.148	5310.26	0.01212	0.01193	0.01227	0.01192	0.01186	0.01098	0.01176	0.01182	0.01174	0.01168	0.01185	0.01153	0.01134	0.01168	0.008681	0.008743	0.006806	0.01051	0.009239	0.0111	0.008198	0.01191	0.01179	0.009977	0.01065	0.007871	0.009714
1897.612	5269.78	0.01014	0.0103	0.01032	0.01026	0.01007	0.007707	0.009963	0.01006	0.01007	0.009941	0.00975	0.00935	0.00959	0.01015	0.007071	0.006793	0.005186	0.00876	0.007446	0.009066	0.006498	0.009852	0.009799	0.008499	0.009173	0.006141	0.008008
1912.075	5229.92	0.009049	0.008765	0.00892	0.008832	0.008965	0.007447	0.008304	0.008375	0.008513	0.008668	0.008632	0.008464	0.008428	0.008486	0.005793	0.006	0.003891	0.007314	0.006119	0.007659	0.00512	0.008203	0.008163	0.006992	0.007703	0.00408	0.005916
1926.539	5190.66	0.005872	0.005854	0.006092	0.005872	0.005876	0.005278	0.005722	0.00578	0.005683	0.00563	0.005819	0.005876	0.005573	0.005656	0.002836	0.00309	0.0009912	0.004619	0.003431	0.005133	0.002395	0.00585	0.005793	0.004067	0.004733	0.001867	0.003751
1941.002	5151.98	0.003852	0.003804	0.003979	0.003957	0.003668	0.001863	0.003843	0.003922	0.003786	0.003729	0.003431	0.003409	0.003571	0.003769	0.001017	0.0007823	-0.001128	0.002273	0.0012	0.002644	0.0002606	0.003663	0.003602	0.002138	0.002815	-0.0001738	0.001745
1955.466	5113.87	0.0007171	0.0005474	0.0005561	0.00053	0.0006301	-0.0009978	0.0004692	0.0004474	0.0004649	0.0005996	0.0005953	0.0004127	0.0004909	0.0004996	-0.00195	-0.00208	-0.004063	-0.000651	-0.001777	-0.0004776	-0.002814	0.0001867	0.000178	-0.0008245	-0.0001304	-0.003848	-0.00195
1969.929	5076.32	-0.0008244	-0.0007377	-0.0005209	-0.0006943	-0.0006943	-0.001041	-0.0006943	-0.0007377	-0.0008244	-0.0008244	-0.0006076	-0.0003039	-0.000651	-0.0007377	-0.003245	-0.003029	-0.005181	-0.001604	-0.002727	-0.001258	-0.003719	-0.0005208	-0.0005209	-0.002296	-0.001561	-0.004665	-0.002771
1984.393	5039.33	-0.0008243	-0.0005208	-0.0006509	-0.0005208	-0.0006509	-0.00208	-0.0004774	-0.0004774	-0.0003906	-0.0005208	-0.0006509	-0.0005208	-0.0005642	-0.0005208	-0.003073	-0.003245	-0.005309	-0.001734	-0.002771	-0.001474	-0.003848	-0.0006076	-0.0006076	-0.00195	-0.001214	-0.004235	-0.002339
1998.856	5002.86	0.0003519	0.000126	-4.341E-5	7.82E-5	0.0001694	-0.001647	0.0001086	5.648E-5	0.0002172	0.0001955	0.0002129	-8.683E-5	0.000126	6.951E-5	-0.002339	-0.002555	-0.004536	-0.001084	-0.002252	-0.001041	-0.003245	-0.0002605	-0.0002605	-0.001084	-0.0003907	-0.004235	-0.002382
2013.320	4966.92	0.002526	0.002636	0.002693	0.002671	0.002754	0.002038	0.002583	0.002526	0.002583	0.002417	0.002592	0.002819	0.002592	0.002701	3.062E-5	0.0002001	-0.00182	0.001785	0.0005087	0.001898	-0.0003904	0.002662	0.002666	0.0009393	0.001671	-0.00156	0.0003739
2027.783	4931.49	0.00712	0.007973	0.007159	0.007955	0.007911	0.005956	0.007239	0.007199	0.007676	0.007318	0.007243	0.00734	0.007182	0.008119	0.004593	0.004707	0.003033	0.006524	0.00516	0.006586	0.004189	0.007416	0.007508	0.006154	0.006811	0.003953	0.005877
2042.247	4896.57	0.007579	0.007663	0.006903	0.007658	0.007716	0.005142	0.00715	0.007111	0.007398	0.007292	0.007265	0.006864	0.007089	0.007818	0.004624	0.004518	0.002745	0.006211	0.004799	0.006141	0.003839	0.006934	0.007053	0.006282	0.006939	0.003099	0.00508
2056.710	4862.13	0.005758	0.005978	0.005674	0.006031	0.006066	0.00487	0.005819	0.005722	0.005648	0.005502	0.005643	0.005626	0.005546	0.006026	0.003042	0.003138	0.001305	0.004922	0.003431	0.004927	0.002609	0.005573	0.005665	0.004132	0.004817	0.001322	0.003248
2071.174	4828.18	0.004848	0.005401	0.005019	0.005436	0.005388	0.004224	0.00512	0.005063	0.005476	0.005063	0.0049	0.005397	0.005037	0.005269	0.002443	0.002548	0.0005867	0.004088	0.002985	0.004273	0.002077	0.004962	0.005054	0.003572	0.004246	0.001279	0.003204
2085.637	4794.70	0.005696	0.005415	0.004812	0.005384	0.005551	0.003453	0.005182	0.00516	0.00559	0.005441	0.005331	0.00519	0.005199	0.005199	0.002701	0.0025	0.000491	0.003782	0.002788	0.003786	0.001732	0.004646	0.004742	0.004181	0.004861	0.0009478	0.00288
2100.101	4761.68	0.006198	0.005934	0.005868	0.005943	0.006	0.004909	0.006057	0.006009	0.005969	0.005758	0.00589	0.005679	0.00578	0.005789	0.003261	0.0032	0.001235	0.004843	0.003449	0.004804	0.002657	0.00552	0.005569	0.004321	0.005015	0.001283	0.003217
2114.564	4729.11	0.007641	0.008065	0.007818	0.00811	0.008088	0.007098	0.007751	0.007681	0.008088	0.00765	0.007402	0.007933	0.007676	0.007831	0.005032	0.00512	0.003191	0.006775	0.005599	0.006784	0.00476	0.007539	0.007663	0.005934	0.006599	0.003738	0.005683
2129.028	4696.98	0.01009	0.009808	0.008978	0.009803	0.01005	0.007849	0.009359	0.009293	0.009985	0.009737	0.009568	0.009581	0.009426	0.009461	0.006926	0.006824	0.004791	0.008048	0.007009	0.007928	0.00596	0.008809	0.008925	0.008411	0.009036	0.00534	0.00731
2143.491	4665.29	0.01311	0.01266	0.0123	0.01266	0.01276	0.01115	0.0126	0.01248	0.01256	0.01233	0.01251	0.01203	0.01212	0.01236	0.009666	0.009603	0.00765	0.01132	0.009781	0.01108	0.008973	0.01191	0.01203	0.01107	0.01173	0.007805	0.009786
2157.955	4634.02	0.01632	0.01674	0.01634	0.01678	0.0168	0.01545	0.01622	0.01608	0.01663	0.016	0.01579	0.01592	0.01586	0.01631	0.0133	0.01335	0.01164	0.0153	0.01391	0.01523	0.01317	0.01598	0.01609	0.01435	0.01498	0.01215	0.0141
2172.418	4603.17	0.01954	0.01951	0.01835	0.01954	0.01979	0.01738	0.01853	0.01844	0.01954	0.01904	0.01881	0.01896	0.01866	0.01914	0.01604	0.01613	0.01428	0.01741	0.01636	0.01728	0.01541	0.01814	0.01828	0.01765	0.01831	0.01492	0.01691
2186.882	4572.72	0.02153	0.02105	0.02021	0.02095	0.02116	0.01895	0.02046	0.02036	0.02073	0.02047	0.02059	0.02003	0.01998	0.02067	0.01757	0.01757	0.01573	0.01918	0.01759	0.01885	0.0168	0.01979	0.0199	0.01926	0.01988	0.0159	0.01791
2201.345	4542.68	0.02122	0.02171	0.02117	0.02178	0.0217	0.02007	0.02107	0.02093	0.02124	0.02067	0.02044	0.02027	0.0204	0.0213	0.01785	0.01786	0.01636	0.02006	0.01839	0.01989	0.01777	0.0206	0.02074	0.01897	0.01955	0.01662	0.01864
2215.809	4513.02	0.022	0.02216	0.02098	0.02218	0.02244	0.02016	0.02105	0.02093	0.02216	0.02155	0.02115	0.02141	0.02112	0.02159	0.01846	0.01858	0.01679	0.02005	0.01896	0.01983	0.01803	0.02067	0.02078	0.01994	0.02053	0.01739	0.01942
2230.272	4483.76	0.02318	0.02235	0.02157	0.02235	0.02257	0.02048	0.0219	0.02175	0.02235	0.02217	0.02216	0.02184	0.02161	0.02183	0.01918	0.01918	0.01703	0.02037	0.01907	0.02018	0.0181	0.021	0.02115	0.0209	0.02152	0.01744	0.01943
2244.736	4454.87	0.02322	0.02351	0.02313	0.02364	0.02335	0.02185	0.02305	0.02298	0.02315	0.02273	0.02245	0.02208	0.02224	0.02278	0.01968	0.01998	0.01798	0.02193	0.02006	0.02165	0.01949	0.02229	0.02253	0.02096	0.02152	0.01824	0.0203
2259.199	4426.35	0.026	0.02666	0.02544	0.02717	0.0267	0.0244	0.0252	0.02524	0.02641	0.02615	0.02528	0.02546	0.02526	0.02569	0.02251	0.0236	0.02087	0.02468	0.02302	0.02444	0.02234	0.02475	0.02531	0.0239	0.02441	0.02129	0.02327
2273.663	4398.19	0.02976	0.02955	0.0282	0.0302	0.02956	0.02706	0.02817	0.02827	0.0293	0.02955	0.02903	0.02881	0.02842	0.02851	0.02562	0.0272	0.0237	0.02745	0.02568	0.02715	0.0248	0.02732	0.02816	0.02769	0.02819	0.02373	0.02576
2288.126	4370.39	0.03287	0.03346	0.033	0.03382	0.03275	0.03106	0.03219	0.03244	0.03284	0.03344	0.03234	0.0317	0.03179	0.03181	0.02897	0.03143	0.02701	0.03198	0.02907	0.03144	0.0287	0.03122	0.03239	0.0307	0.03124	0.02705	0.02906
2302.590	4342.94	0.03521	0.0376	0.03649	0.03601	0.03595	0.03336	0.03403	0.03515	0.03666	0.03916	0.03573	0.03432	0.0345	0.03435	0.03189	0.03616	0.02976	0.03637	0.0323	0.03572	0.03213	0.0336	0.03664	0.03347	0.034	0.02949	0.03148
2317.053	4315.83	0.03814	0.04181	0.03934	0.03827	0.03897	0.03542	0.03601	0.03816	0.04092	0.04345	0.03929	0.03687	0.03707	0.0373	0.03447	0.03795	0.03255	0.03839	0.03495	0.03772	0.03436	0.03541	0.03839	0.03616	0.03666	0.03253	0.03455
2331.517	4289.05	0.04116	0.04391	0.04073	0.04056	0.04195	0.03749	0.03773	0.03959	0.04302	0.04457	0.04143	0.0395	0.03973	0.04035	0.03715	0.0398	0.03543	0.03972	0.03767	0.03906	0.0365	0.0373	0.03977	0.03893	0.03941	0.03568	0.03773
2345.980	4262.61	0.04312	0.04527	0.04244	0.04268	0.04387	0.03961	0.04003	0.04142	0.04437	0.04529	0.0428	0.0412	0.04144	0.04233	0.03887	0.04105	0.0373	0.04136	0.03942	0.04075	0.03838	0.03958	0.04153	0.04071	0.04117	0.03771	0.03978
2360.444	4236.49	0.04656	0.04765	0.04373	0.04505	0.04726	0.04169	0.04156	0.04272	0.04674	0.04655	0.04523	0.04419	0.04446	0.0458	0.04191	0.04313	0.04058	0.04258	0.04251	0.04199	0.04063	0.04135	0.04278	0.04386	0.0443	0.04129	0.0434
2374.907	4210.69	0.04727	0.04815	0.04581	0.04701	0.04796	0.04385	0.04454	0.04502	0.04723	0.04681	0.04573	0.04481	0.04509	0.04653	0.04254	0.04369	0.04126	0.04459	0.04315	0.04408	0.04223	0.04408	0.045	0.04451	0.04494	0.04203	0.04415
2389.371	4185.20	0.04844	0.04896	0.04776	0.04904	0.04911	0.046	0.0473	0.04718	0.04804	0.04724	0.04655	0.04583	0.04611	0.04771	0.04357	0.04451	0.04238	0.04647	0.0442	0.04603	0.04395	0.04667	0.04706	0.04558	0.046	0.04326	0.04539
2403.834	4160.02	0.0515	0.05097	0.04945	0.05117	0.05171	0.04858	0.04928	0.04904	0.05104	0.05003	0.04956	0.04918	0.04919	0.05004	0.04652	0.04666	0.04519	0.04845	0.04716	0.04809	0.04655	0.04899	0.04927	0.04871	0.04914	0.04611	0.04825
2418.298	4135.14	0.05068	0.04993	0.04874	0.04991	0.05025	0.04758	0.04857	0.04836	0.04965	0.04898	0.04901	0.04876	0.04824	0.04914	0.04567	0.04605	0.04399	0.04736	0.04581	0.04694	0.04497	0.04788	0.04814	0.04833	0.04877	0.04473	0.04692
2432.761	4110.56	0.0477	0.04781	0.04703	0.04794	0.04779	0.04525	0.04684	0.04664	0.04736	0.04636	0.04603	0.04535	0.04555	0.04658	0.04307	0.04314	0.04155	0.04559	0.0435	0.04513	0.04322	0.04597	0.04624	0.04526	0.04571	0.04258	0.04475
2447.225	4086.26	0.04555	0.04534	0.04401	0.04555	0.04602	0.04312	0.04406	0.04382	0.04542	0.04451	0.04385	0.04355	0.0437	0.04448	0.04108	0.04122	0.03968	0.04334	0.04179	0.04299	0.04145	0.04385	0.04414	0.04327	0.04373	0.04072	0.04294
2461.688	4062.25	0.04471	0.04375	0.04275	0.04376	0.0442	0.04211	0.04276	0.04254	0.04402	0.04344	0.04337	0.04348	0.04291	0.04309	0.04035	0.04068	0.03846	0.04177	0.04057	0.04142	0.03985	0.04243	0.04275	0.04309	0.04355	0.03937	0.04154
2476.152	4038.52	0.0452	0.04508	0.0445	0.04511	0.04495	0.04288	0.04444	0.0442	0.04484	0.04399	0.04378	0.04346	0.04339	0.04399	0.04093	0.0412	0.03914	0.04326	0.04124	0.04295	0.04101	0.0438	0.04414	0.04363	0.04411	0.04054	0.0427
2490.615	4015.07	0.04836	0.04828	0.04704	0.04852	0.04877	0.04593	0.0472	0.04694	0.04833	0.04733	0.04659	0.04612	0.04655	0.04744	0.044	0.04407	0.04266	0.04667	0.04487	0.04629	0.04486	0.04719	0.0476	0.0466	0.04708	0.0443	0.0465
2505.079	3991.89	0.05464	0.05387	0.05246	0.05399	0.05446	0.05189	0.05247	0.05217	0.05413	0.05334	0.05316	0.05314	0.05281	0.05352	0.05025	0.05081	0.04875	0.05216	0.05081	0.05179	0.05038	0.05292	0.05339	0.0536	0.05409	0.05033	0.05253
2519.542	3968.97	0.06398	0.06345	0.06271	0.06363	0.06352	0.06101	0.0624	0.06216	0.06334	0.06238	0.06229	0.06193	0.06172	0.06257	0.0593	0.05988	0.05764	0.06187	0.05979	0.06145	0.05971	0.06248	0.06299	0.06317	0.06358	0.05997	0.06221
2534.006	3946.32	0.07571	0.07541	0.07419	0.07568	0.07585	0.07245	0.0739	0.07364	0.07532	0.07397	0.07338	0.07221	0.07294	0.07427	0.07045	0.07086	0.0693	0.0738	0.07159	0.07345	0.07201	0.07455	0.07504	0.07435	0.07477	0.07239	0.07464
2548.469	3923.92	0.08958	0.08835	0.08685	0.08854	0.08924	0.08574	0.08629	0.08597	0.08868	0.08744	0.08716	0.08619	0.08648	0.08751	0.08376	0.08452	0.0827	0.08655	0.08495	0.08623	0.08518	0.08755	0.08805	0.08843	0.08874	0.08582	0.08811
2562.933	3901.78	0.1097	0.1082	0.1073	0.1084	0.1086	0.1051	0.1062	0.1059	0.1082	0.1068	0.1068	0.1056	0.1057	0.1067	0.1029	0.1039	0.1017	0.1059	0.1039	0.1056	0.1041	0.1068	0.1074	0.1084	0.1086	0.1054	0.1077
2577.396	3879.88	0.1398	0.1388	0.1371	0.139	0.1394	0.134	0.1355	0.1352	0.138	0.1359	0.1355	0.1328	0.1339	0.1365	0.1312	0.1321	0.1311	0.1356	0.1328	0.1351	0.1336	0.1363	0.1369	0.1368	0.137	0.1353	0.1377
2591.860	3858.23	0.1722	0.1704	0.1678	0.1708	0.1719	0.1651	0.1656	0.1652	0.1696	0.1671	0.1669	0.1635	0.1648	0.1683	0.1617	0.1629	0.1624	0.1665	0.1639	0.1658	0.1646	0.1671	0.1679	0.1683	0.1683	0.1669	0.1693
2606.323	3836.82	0.1957	0.1937	0.1911	0.1939	0.1946	0.1876	0.1881	0.1877	0.1923	0.1897	0.1899	0.1866	0.1873	0.1912	0.1841	0.1858	0.1852	0.189	0.1861	0.1881	0.1867	0.1895	0.1903	0.1918	0.1918	0.1896	0.1922
2620.787	3815.65	0.2095	0.2078	0.2053	0.2082	0.2088	0.2009	0.2023	0.2018	0.2061	0.2032	0.203	0.1989	0.2002	0.2046	0.1972	0.1988	0.1983	0.203	0.1994	0.2021	0.2006	0.2034	0.2042	0.2049	0.2049	0.2037	0.2062
2635.250	3794.71	0.2223	0.2201	0.2171	0.2205	0.2217	0.2134	0.2141	0.2137	0.2189	0.2157	0.2153	0.2107	0.2126	0.2171	0.2093	0.211	0.2108	0.2153	0.212	0.2145	0.2134	0.216	0.2168	0.2174	0.2172	0.2164	0.2189
2649.714	3773.99	0.2388	0.2366	0.2335	0.2367	0.2377	0.2296	0.2301	0.2296	0.2349	0.232	0.232	0.2277	0.229	0.2337	0.2255	0.2276	0.2272	0.2312	0.2281	0.2303	0.229	0.2319	0.2327	0.2345	0.2342	0.2322	0.2349
2664.177	3753.50	0.2756	0.2734	0.2702	0.2735	0.2744	0.2647	0.266	0.2656	0.2709	0.2674	0.2671	0.2619	0.2636	0.2692	0.2599	0.2622	0.2623	0.2668	0.2628	0.2657	0.2641	0.2671	0.268	0.2695	0.2691	0.2679	0.2706
2678.641	3733.24	0.2637	0.2631	0.2583	0.2634	0.2645	0.2539	0.2553	0.2548	0.2601	0.2568	0.2563	0.2509	0.2532	0.2606	0.2497	0.2522	0.2529	0.2577	0.2531	0.2563	0.2549	0.2579	0.259	0.2596	0.2591	0.2588	0.2616
2693.104	3713.19	0.2524	0.2513	0.247	0.2519	0.2527	0.2432	0.2443	0.2438	0.249	0.2462	0.246	0.2416	0.2433	0.2497	0.2397	0.2424	0.2421	0.2471	0.243	0.2458	0.2445	0.2476	0.2486	0.25	0.2496	0.2481	0.2509
2707.568	3693.35	0.2677	0.2654	0.2625	0.2658	0.2664	0.2577	0.2591	0.2587	0.2639	0.2609	0.2607	0.2562	0.2579	0.2629	0.2544	0.2573	0.2564	0.2614	0.2577	0.2606	0.2593	0.2623	0.2633	0.2652	0.2648	0.2634	0.2661
2722.031	3673.73	0.3495	0.3458	0.3422	0.3459	0.3476	0.3359	0.3368	0.3364	0.3437	0.3391	0.3384	0.3309	0.3342	0.3405	0.3301	0.3328	0.3336	0.3383	0.3341	0.3373	0.3362	0.3389	0.3398	0.3413	0.3406	0.341	0.3437
2736.495	3654.31	0.2904	0.2931	0.2853	0.2932	0.2936	0.2814	0.2835	0.2831	0.2875	0.2851	0.2843	0.2797	0.2815	0.2925	0.2774	0.2812	0.2828	0.2872	0.2813	0.2854	0.2833	0.287	0.2884	0.2891	0.2884	0.2869	0.2899
2750.958	3635.10	0.2527	0.2557	0.2485	0.2563	0.256	0.2444	0.2475	0.247	0.2503	0.2484	0.2479	0.2445	0.2455	0.2561	0.2419	0.2455	0.2459	0.251	0.245	0.249	0.2465	0.2502	0.2517	0.2528	0.252	0.2496	0.2525
2765.422	3616.08	0.2738	0.2748	0.2694	0.2748	0.2751	0.2649	0.2682	0.2677	0.2714	0.269	0.2679	0.2635	0.2659	0.2734	0.2621	0.2653	0.265	0.2705	0.2652	0.2688	0.2671	0.2704	0.2717	0.2725	0.2718	0.27	0.273
2779.885	3597.27	0.3635	0.3629	0.3575	0.3625	0.3635	0.3519	0.3545	0.3538	0.36	0.3567	0.3554	0.3485	0.3524	0.36	0.3477	0.3519	0.3521	0.3572	0.3524	0.3559	0.3547	0.3581	0.3592	0.3604	0.3598	0.3589	0.3618
2794.349	3578.65	0.5368	0.5353	0.5283	0.5345	0.5359	0.5191	0.5222	0.5215	0.5308	0.5258	0.5243	0.5143	0.5193	0.5299	0.5124	0.5197	0.5209	0.5254	0.5198	0.5244	0.5232	0.5271	0.5279	0.5302	0.53	0.5305	0.533
2808.812	3560.22	0.7988	0.7933	0.785	0.7898	0.7951	0.771	0.7731	0.773	0.7871	0.779	0.775	0.7599	0.7691	0.7837	0.7564	0.7698	0.7727	0.7794	0.7712	0.7763	0.7756	0.7795	0.7817	0.7859	0.7831	0.787	0.7908
2823.276	3541.98	1.446	1.424	1.413	1.398	1.429	1.391	1.38	1.385	1.413	1.399	1.373	1.351	1.378	1.407	1.323	1.378	1.386	1.404	1.386	1.385	1.388	1.391	1.4	1.413	1.395	1.407	1.418
2837.739	3523.93	3.993	3.761	3.684	2.603	3.906	3.792	2.984	3.403	3.473	3.668	2.526	2.758	3.582	4.108	2.196	3.736	3.658	4.217	4.082	3.419	3.52	3.619	4.177	3.896	3.431	4.028	4.105
2852.203	3506.06	4.625	4.139	3.724	2.737	4.192	4.385	3.056	3.455	3.649	4.22	2.548	2.805	3.861	4.578	2.222	6.001	4.863	6	6	3.761	3.669	3.956	4.543	6	3.571	4.868	4.38
2866.666	3488.37	5.429	4.03	3.723	2.847	4.007	4.464	3.085	3.531	3.592	4.088	2.596	2.812	3.996	5.998	2.233	6.001	4.74	6	6	3.7	3.762	3.954	4.504	6	3.494	4.475	4.263
2881.130	3470.86	6.003	4.279	3.783	2.867	4.043	3.936	3.075	3.604	3.492	4.011	2.616	2.826	4.137	4.564	2.222	4.124	4.662	6	4.534	3.622	4.056	3.889	4.141	6	3.629	4.645	4.624
2895.593	3453.52	5.17	4.493	3.746	2.765	4.095	5.633	3.074	3.657	3.568	3.95	2.581	2.795	3.881	4.569	2.222	4.952	4.281	6	5.416	3.711	3.904	4.287	4.346	6	3.488	4.285	4.196
2910.057	3436.36	4.508	3.962	3.701	2.872	3.951	4.384	3.084	3.565	3.591	3.897	2.609	2.788	4.123	5.998	2.238	4.229	4.596	6	4.847	3.594	3.845	4.008	4.122	6	3.627	4.174	4.276
2924.520	3419.36	6.003	4.146	3.71	3.103	4.738	4.271	3.179	3.472	3.381	4.456	2.682	2.816	3.83	5.998	2.235	4.183	4.481	6	4.119	3.548	3.637	3.934	4.107	6	3.417	3.858	4.51
2938.984	3402.54	4.736	4.245	4.015	3.129	4.026	4.269	3.146	3.559	3.438	4.169	2.67	2.808	3.96	4.324	2.224	4.129	4.36	6	4.198	3.659	3.73	3.877	4.059	6	3.447	3.835	4.127
2953.447	3385.87	5.049	4.245	3.802	3.019	4.7	5.661	3.036	3.575	3.497	4.422	2.637	2.765	3.844	5.998	2.24	4.442	4.851	6	5.186	3.741	4.107	3.986	4.098	6	3.375	4.04	4.156
2967.911	3369.37	4.941	4.15	3.787	3.212	3.977	4.74	3.076	3.578	3.442	3.909	2.667	2.834	3.737	5.998	2.224	5.243	4.004	6	4.658	3.722	4.255	3.928	5.999	6	3.472	3.817	4.304
2982.374	3353.03	2.008	2.163	1.981	2.1	2.129	1.964	1.955	1.984	1.964	1.977	1.885	1.911	1.931	2.172	1.749	1.958	2.034	2.079	1.942	2.005	1.951	1.992	2.029	2.007	1.955	1.96	1.982
2996.838	3336.85	0.9118	0.9403	0.9026	0.9348	0.9387	0.8958	0.8981	0.8988	0.9006	0.8975	0.8887	0.8848	0.8816	0.9361	0.8626	0.8844	0.9011	0.9054	0.8803	0.8947	0.8833	0.893	0.899	0.8948	0.8882	0.8804	0.8862
3011.301	3320.82	0.6138	0.6216	0.6067	0.6183	0.6211	0.6034	0.6016	0.6017	0.6059	0.6013	0.5964	0.5932	0.5904	0.6105	0.5804	0.5878	0.5948	0.5964	0.5861	0.592	0.5873	0.5917	0.5942	0.5915	0.5887	0.5829	0.5873
3025.765	3304.95	0.4305	0.4375	0.425	0.436	0.4373	0.424	0.4226	0.4227	0.4248	0.4223	0.4185	0.418	0.4141	0.4312	0.4071	0.4123	0.4171	0.4204	0.411	0.4164	0.4125	0.4163	0.419	0.4176	0.4149	0.4123	0.4168
3040.228	3289.23	0.3238	0.3311	0.3193	0.3306	0.3314	0.3195	0.3187	0.3188	0.32	0.318	0.3152	0.316	0.312	0.3279	0.3066	0.3107	0.3144	0.3183	0.3095	0.3146	0.311	0.3144	0.317	0.3161	0.3137	0.3113	0.3156
3054.692	3273.65	0.2467	0.2529	0.2435	0.2527	0.2531	0.2453	0.2441	0.244	0.2452	0.2436	0.2411	0.243	0.2392	0.2512	0.2349	0.2386	0.2406	0.2447	0.2373	0.2421	0.2394	0.2426	0.2448	0.244	0.2425	0.2402	0.2442
3069.155	3258.23	0.1988	0.2033	0.1958	0.2032	0.2036	0.1978	0.1968	0.1966	0.1978	0.1963	0.1941	0.1964	0.1928	0.2019	0.189	0.1921	0.1931	0.197	0.1911	0.1951	0.1931	0.1958	0.1976	0.1972	0.1962	0.1936	0.1973
3083.619	3242.94	0.1422	0.1464	0.14	0.1462	0.1466	0.1422	0.1419	0.1415	0.1424	0.1413	0.1397	0.1426	0.1394	0.1462	0.136	0.1389	0.1391	0.1432	0.1382	0.1417	0.1404	0.1425	0.1443	0.1447	0.144	0.1411	0.1448
3098.082	3227.80	0.1133	0.1173	0.1115	0.1172	0.1176	0.1143	0.1136	0.1131	0.1141	0.113	0.1115	0.1147	0.1117	0.1179	0.1087	0.1114	0.1111	0.1155	0.1107	0.114	0.1129	0.1149	0.1167	0.117	0.1165	0.1136	0.1172
3112.546	3212.80	0.1001	0.1039	0.09824	0.104	0.1043	0.1012	0.1007	0.1001	0.1011	0.1	0.09862	0.1018	0.09891	0.1049	0.09596	0.09861	0.09825	0.1027	0.0979	0.1012	0.1002	0.1021	0.1039	0.1041	0.1037	0.1009	0.1044
3127.009	3197.94	0.09432	0.09809	0.09229	0.0982	0.09855	0.09499	0.09504	0.09438	0.09541	0.09431	0.09299	0.09614	0.09335	0.099	0.09041	0.09287	0.09256	0.0969	0.09237	0.0954	0.09466	0.09617	0.09787	0.09839	0.09806	0.09497	0.09842
3141.473	3183.22	0.09461	0.09776	0.09208	0.0979	0.0984	0.09518	0.0947	0.0941	0.09538	0.09398	0.09291	0.09567	0.09328	0.09843	0.09019	0.09259	0.09233	0.0965	0.09211	0.09511	0.09432	0.09564	0.09725	0.09815	0.09789	0.09464	0.09817
3155.936	3168.63	0.09783	0.1008	0.09526	0.1011	0.1015	0.09843	0.09764	0.09695	0.09858	0.09694	0.09565	0.09851	0.096	0.1012	0.09301	0.09541	0.09514	0.09941	0.09495	0.09775	0.09715	0.0985	0.1001	0.1009	0.1005	0.09753	0.1011
3170.400	3154.18	0.09844	0.1012	0.09521	0.1015	0.102	0.0981	0.09802	0.0972	0.09899	0.09712	0.09596	0.09845	0.09601	0.1013	0.09306	0.09541	0.09538	0.09941	0.09513	0.09774	0.09744	0.09827	0.09976	0.1009	0.1006	0.09742	0.101
3184.863	3139.85	0.09057	0.09347	0.08701	0.09383	0.09444	0.09009	0.08975	0.08893	0.09091	0.08898	0.08796	0.09021	0.08817	0.09392	0.08515	0.08739	0.08786	0.09154	0.087	0.08988	0.08933	0.09001	0.09164	0.09297	0.09263	0.08916	0.09278
3199.327	3125.66	0.07299	0.07632	0.06969	0.07692	0.07736	0.07345	0.07284	0.07201	0.07362	0.07175	0.07073	0.07354	0.07124	0.07748	0.06839	0.07063	0.07111	0.07476	0.07013	0.07307	0.07234	0.07319	0.0748	0.07587	0.0755	0.07221	0.07584
3213.790	3111.59	0.05299	0.05576	0.05005	0.05633	0.05667	0.05369	0.05361	0.05271	0.05417	0.05252	0.05134	0.05461	0.05227	0.05675	0.04939	0.05164	0.05126	0.0552	0.0511	0.05363	0.05346	0.05385	0.0553	0.05643	0.0562	0.05259	0.05615
3228.254	3097.65	0.03812	0.04005	0.03518	0.04059	0.04093	0.03928	0.03912	0.03828	0.03957	0.03801	0.03684	0.04009	0.03811	0.04093	0.03529	0.03728	0.0364	0.04038	0.03692	0.03888	0.03913	0.03908	0.04041	0.04203	0.04196	0.03761	0.04111
3242.717	3083.83	0.02881	0.0305	0.02616	0.03098	0.03125	0.03088	0.03009	0.02918	0.03062	0.02882	0.02768	0.03136	0.02939	0.0313	0.02659	0.02831	0.02732	0.03116	0.02801	0.02982	0.03005	0.03009	0.03138	0.03286	0.03294	0.02857	0.03214
3257.181	3070.14	0.02288	0.02483	0.02047	0.02526	0.0255	0.02494	0.0246	0.02364	0.02501	0.02332	0.02205	0.02599	0.02379	0.02563	0.02104	0.02292	0.02173	0.0256	0.02236	0.02408	0.02449	0.02447	0.02574	0.02718	0.02724	0.02301	0.0266
3271.644	3056.57	0.01935	0.02107	0.01669	0.0216	0.02198	0.02104	0.02126	0.02026	0.02135	0.01979	0.01852	0.02226	0.02027	0.02197	0.01741	0.01929	0.0183	0.02204	0.01903	0.02058	0.02111	0.02083	0.02207	0.02373	0.02379	0.01912	0.02273
3286.108	3043.11	0.01741	0.019	0.01473	0.01961	0.01977	0.01967	0.01919	0.01816	0.01951	0.01776	0.01654	0.02032	0.0186	0.01997	0.01571	0.01735	0.01652	0.02014	0.01714	0.01865	0.01922	0.01883	0.02002	0.02199	0.02205	0.01736	0.02095
3300.571	3029.78	0.01622	0.0179	0.01359	0.01845	0.01864	0.01859	0.01827	0.01732	0.01848	0.01659	0.01551	0.01964	0.01741	0.01875	0.01477	0.01651	0.01537	0.01912	0.01614	0.01753	0.01816	0.01783	0.01899	0.02088	0.02093	0.01662	0.02022
3315.035	3016.56	0.01608	0.01776	0.01331	0.01835	0.01863	0.01815	0.01839	0.01741	0.01854	0.01658	0.01539	0.01947	0.01734	0.01861	0.01453	0.01658	0.01523	0.01915	0.01618	0.01771	0.01831	0.01776	0.01887	0.02112	0.0212	0.01645	0.02003
3329.498	3003.46	0.01686	0.01841	0.01392	0.01906	0.01931	0.01924	0.01901	0.01808	0.01919	0.01714	0.0162	0.01992	0.01824	0.01945	0.01536	0.01724	0.01608	0.01996	0.01701	0.01852	0.01923	0.01858	0.01966	0.02207	0.02217	0.0172	0.02079
3343.962	2990.46	0.01706	0.01869	0.01433	0.01928	0.01962	0.01962	0.0193	0.01842	0.01948	0.01743	0.01632	0.0205	0.01854	0.01963	0.01573	0.01765	0.01617	0.0202	0.01731	0.01882	0.01936	0.0189	0.02005	0.0224	0.02241	0.01804	0.0216
3358.425	2977.59	0.01604	0.01789	0.0133	0.01865	0.01892	0.01824	0.01868	0.01777	0.01865	0.01661	0.01555	0.01986	0.01763	0.01905	0.01469	0.01698	0.01551	0.01962	0.01656	0.01825	0.01886	0.01839	0.01951	0.02192	0.02188	0.01749	0.02103
3372.889	2964.82	0.01444	0.01619	0.01125	0.01687	0.01714	0.01676	0.01697	0.01614	0.01682	0.01485	0.0138	0.01767	0.01593	0.0176	0.01291	0.01518	0.014	0.01796	0.01494	0.01668	0.01738	0.01666	0.01769	0.02044	0.02049	0.01561	0.01921
3387.352	2952.16	0.01205	0.01381	0.009137	0.01446	0.01468	0.01486	0.01453	0.01373	0.01449	0.0125	0.01158	0.01578	0.01393	0.01516	0.01099	0.01314	0.01173	0.01564	0.01291	0.01454	0.01504	0.01454	0.01563	0.01839	0.0183	0.01399	0.01755
3401.816	2939.61	0.009013	0.01089	0.006194	0.0117	0.0119	0.01166	0.01187	0.01109	0.01181	0.009714	0.008801	0.01329	0.01101	0.01223	0.008043	0.0105	0.008703	0.01302	0.009999	0.0117	0.0124	0.01173	0.01289	0.01569	0.0156	0.0113	0.01483
3416.279	2927.16	0.007075	0.008796	0.0039	0.009555	0.009852	0.009803	0.01004	0.009244	0.009799	0.007875	0.006877	0.01109	0.009058	0.01037	0.006097	0.008499	0.006992	0.01116	0.008225	0.01009	0.01083	0.01005	0.01112	0.01408	0.01409	0.009271	0.01283
3430.743	2914.82	0.005037	0.006643	0.001972	0.007592	0.007769	0.008039	0.007774	0.007036	0.007782	0.005626	0.004922	0.008982	0.007093	0.008296	0.004233	0.006273	0.004707	0.008707	0.006022	0.007791	0.008366	0.00765	0.008756	0.01176	0.01178	0.007389	0.01095
3445.206	2902.58	0.003882	0.005511	0.001135	0.006392	0.006661	0.006656	0.006634	0.005841	0.006718	0.004466	0.003655	0.008397	0.005969	0.006956	0.003143	0.005283	0.003357	0.007469	0.004909	0.006392	0.007164	0.006546	0.007654	0.01033	0.01051	0.006097	0.009612
3459.670	2890.45	0.002404	0.00372	-0.000651	0.004659	0.004962	0.005006	0.005384	0.004641	0.005102	0.002976	0.002264	0.006462	0.004255	0.004852	0.001348	0.003589	0.001597	0.00574	0.003291	0.004733	0.005542	0.004865	0.005916	0.008672	0.008911	0.003896	0.007398
3474.133	2878.42	0.001353	0.002574	-0.001647	0.003265	0.003663	0.004238	0.004067	0.003449	0.003939	0.001671	0.001078	0.005164	0.003326	0.003742	0.0003606	0.002234	0.0004215	0.00422	0.002133	0.003506	0.004207	0.003493	0.004457	0.007442	0.007681	0.002697	0.006119
3488.597	2866.48	-0.0001303	0.001226	-0.002684	0.002085	0.002474	0.002753	0.00257	0.001959	0.002675	0.000365	-0.0002171	0.004281	0.001924	0.0024	-0.0008677	0.0009043	-0.0009977	0.002675	0.0005215	0.001924	0.002216	0.002081	0.003086	0.005393	0.005722	0.001335	0.004672
3503.061	2854.65	-0.001084	0.0002258	-0.003288	0.001039	0.001187	0.0013	0.001322	0.0007084	0.001475	-0.0003474	-0.001258	0.003178	0.0007998	0.001266	-0.001993	-0.0002172	-0.002296	0.001771	-0.000651	0.0008564	0.001261	0.001083	0.002264	0.004049	0.004514	-0.0006944	0.002587
3517.524	2842.91	-0.00208	-0.0009977	-0.00445	-0.0001737	9.121E-5	0.0006432	0.0003041	-0.0002171	0.0003867	-0.001517	-0.002252	0.001885	-0.0002605	0.0002737	-0.003073	-0.001431	-0.003374	0.0004432	-0.001604	-0.0001303	0.0001303	-0.0002171	0.0007998	0.003068	0.003304	-0.00169	0.001501
3531.988	2831.27	-0.002857	-0.001474	-0.004837	-0.0008244	-0.0006076	3.904E-5	-0.000651	-0.001041	-0.0003907	-0.002339	-0.002814	0.001797	-0.0007377	-0.0003908	-0.003504	-0.001993	-0.004063	-0.0003474	-0.002339	-0.0009111	-0.0009544	-0.0007377	0.0001867	0.002028	0.002212	-0.002166	0.0009216
3546.451	2819.72	-0.003676	-0.002123	-0.005009	-0.001388	-0.001388	-0.001301	-0.001517	-0.00182	-0.001128	-0.002684	-0.003676	0.001283	-0.001647	-0.001128	-0.004364	-0.002641	-0.005052	-0.0009111	-0.003374	-0.00169	-0.00208	-0.001647	-0.0005208	0.000591	0.0008738	-0.004063	-0.001041
3560.915	2808.27	-0.003159	-0.00182	-0.004794	-0.001128	-0.001258	-0.0008244	-0.001258	-0.001604	-0.001041	-0.002512	-0.003417	0.0008781	-0.001561	-0.001041	-0.004364	-0.002986	-0.004923	-0.001041	-0.003461	-0.00195	-0.002209	-0.00208	-0.0009111	0.0001389	0.0004214	-0.00488	-0.00195
3575.378	2796.91	-0.002252	-0.000781	-0.003719	-0.0002171	-0.0002171	0.0003563	-0.0005208	-0.0006076	-4.342E-5	-0.001604	-0.002339	0.001972	-0.0004775	-0.0002605	-0.003288	-0.002296	-0.004407	-0.000781	-0.002727	-0.001517	-0.001907	-0.00182	-0.000651	0.0003258	0.0004041	-0.004235	-0.001431
3589.842	2785.64	-0.000217	0.001518	-0.001387	0.0024	0.002068	0.002299	0.00195	0.001719	0.002203	0.0008392	0.0001825	0.004606	0.001688	0.001174	-0.001128	0.00107	-0.002425	0.001126	-0.0007376	0.0005477	3.915E-5	0.0001999	0.001518	0.001985	0.002216	-0.002252	0.0005302
3604.305	2774.46	0.004971	0.0067	0.003633	0.007942	0.007071	0.007349	0.006899	0.00689	0.007217	0.006035	0.005168	0.009266	0.006502	0.006467	0.003699	0.006145	0.002675	0.00652	0.004115	0.005722	0.005168	0.005283	0.006714	0.007226	0.007614	0.002456	0.005124
3618.769	2763.37	0.008579	0.01104	0.008101	0.01223	0.01144	0.01131	0.01032	0.01065	0.01109	0.01026	0.009315	0.01337	0.01086	0.01161	0.007973	0.009821	0.007182	0.01069	0.008398	0.009866	0.009018	0.00963	0.01129	0.0111	0.01153	0.006577	0.0092
3633.232	2752.37	0.01007	0.01219	0.009271	0.01313	0.01262	0.0119	0.01149	0.01141	0.01201	0.01088	0.01035	0.01451	0.01137	0.01192	0.008663	0.01075	0.007438	0.01095	0.008778	0.009923	0.009253	0.009555	0.01121	0.01098	0.01141	0.005991	0.008552
3647.696	2741.46	0.01156	0.01321	0.01134	0.01336	0.01334	0.01263	0.01207	0.01153	0.0127	0.01141	0.01064	0.01497	0.01178	0.01327	0.0092	0.009448	0.008057	0.01141	0.008863	0.009861	0.00892	0.01029	0.01129	0.01062	0.01115	0.003948	0.006321
3662.159	2730.63	0.01345	0.01455	0.01216	0.01481	0.01529	0.01439	0.01384	0.01338	0.01412	0.01243	0.01249	0.01552	0.01311	0.01405	0.01048	0.01031	0.009213	0.01191	0.01035	0.0106	0.0103	0.01092	0.01207	0.01215	0.01268	0.00589	0.008269
3676.623	2719.89	0.01627	0.01748	0.01554	0.01784	0.01808	0.01701	0.01659	0.01606	0.01723	0.01572	0.01582	0.01895	0.01622	0.01669	0.01343	0.01377	0.01207	0.01494	0.01327	0.01369	0.01308	0.01395	0.0151	0.0144	0.01481	0.0092	0.01156
3691.086	2709.23	0.01831	0.01975	0.01776	0.02031	0.02001	0.01936	0.01886	0.01858	0.01953	0.01828	0.01796	0.02117	0.01816	0.01816	0.01534	0.01687	0.0141	0.01714	0.01519	0.016	0.01542	0.01602	0.01765	0.01659	0.01699	0.01177	0.01431
3705.550	2698.66	0.01956	0.02092	0.0187	0.02171	0.02129	0.02059	0.02035	0.02007	0.02059	0.01919	0.01906	0.0217	0.01931	0.01874	0.01641	0.01808	0.01476	0.01775	0.01588	0.01657	0.01612	0.01636	0.01791	0.01767	0.01807	0.01281	0.01536
3720.013	2688.16	0.02122	0.02253	0.02068	0.02378	0.0231	0.02228	0.02156	0.02129	0.0223	0.02105	0.02052	0.02361	0.02093	0.02062	0.01803	0.01952	0.01636	0.01943	0.01738	0.01786	0.01736	0.01775	0.01953	0.01884	0.01943	0.01442	0.01691
3734.477	2677.75	0.02402	0.0255	0.0244	0.02674	0.02569	0.02461	0.02445	0.02404	0.02578	0.02466	0.02362	0.02687	0.02407	0.02365	0.0209	0.023	0.01944	0.02309	0.02047	0.02145	0.02046	0.0209	0.02308	0.02215	0.02251	0.01703	0.01955
3748.940	2667.42	0.02713	0.02819	0.02682	0.02827	0.02848	0.02765	0.02725	0.0265	0.02803	0.02642	0.02575	0.02924	0.02639	0.02751	0.02341	0.02365	0.02229	0.02544	0.02318	0.02349	0.02324	0.02414	0.02537	0.02452	0.02484	0.01969	0.02223
3763.404	2657.17	0.02986	0.03059	0.02879	0.03087	0.03155	0.03031	0.02972	0.02911	0.03052	0.02835	0.02821	0.03125	0.0287	0.02955	0.02588	0.02565	0.02474	0.02731	0.02563	0.02578	0.0253	0.0262	0.02717	0.02728	0.0277	0.02325	0.02571
3777.867	2647.00	0.03206	0.0327	0.03056	0.03299	0.03374	0.03239	0.03179	0.03128	0.0327	0.03078	0.03028	0.03355	0.03082	0.0313	0.02808	0.02801	0.02677	0.0292	0.02753	0.02756	0.02736	0.02818	0.02916	0.0294	0.02978	0.02536	0.02795
3792.331	2636.90	0.03385	0.03429	0.03201	0.03461	0.03528	0.034	0.03381	0.03324	0.03435	0.03216	0.03196	0.03497	0.03232	0.03281	0.02961	0.02974	0.02841	0.03078	0.02921	0.02928	0.02905	0.02993	0.03085	0.03122	0.03171	0.02707	0.02967
3806.794	2626.88	0.03565	0.03619	0.03387	0.03662	0.03737	0.03589	0.03548	0.03484	0.03619	0.03403	0.03395	0.03662	0.0343	0.03505	0.03134	0.03133	0.03031	0.03278	0.03126	0.03143	0.03103	0.03173	0.03268	0.03303	0.03345	0.02902	0.03169
3821.258	2616.94	0.0382	0.03875	0.03725	0.03903	0.03957	0.03838	0.03772	0.03704	0.0391	0.03692	0.03632	0.03966	0.03694	0.03785	0.03403	0.03434	0.03274	0.03583	0.03387	0.03389	0.03364	0.03447	0.03541	0.03526	0.03574	0.0313	0.03375
3835.721	2607.07	0.03858	0.03894	0.03733	0.03935	0.03994	0.0385	0.03838	0.03758	0.03906	0.03712	0.0364	0.03961	0.03686	0.03775	0.03426	0.03475	0.033	0.03571	0.0336	0.03372	0.03387	0.03454	0.03542	0.03566	0.03603	0.03113	0.0336
3850.185	2597.28	0.03922	0.03938	0.03718	0.0395	0.04061	0.03918	0.03894	0.03814	0.03949	0.03688	0.03658	0.03971	0.03718	0.03724	0.03446	0.03448	0.03326	0.03531	0.0341	0.03373	0.03404	0.03458	0.03508	0.03612	0.03658	0.03194	0.03452
3864.648	2587.56	0.04044	0.04087	0.0396	0.04125	0.04176	0.04071	0.03988	0.03925	0.04108	0.03898	0.03832	0.04181	0.03894	0.03976	0.03624	0.03622	0.03493	0.03782	0.03587	0.03604	0.03571	0.03661	0.03755	0.03756	0.038	0.0335	0.03588
3879.112	2577.91	0.04164	0.04193	0.03981	0.04208	0.04291	0.0415	0.0413	0.04076	0.04199	0.03973	0.03922	0.04262	0.03973	0.04019	0.03711	0.03736	0.03603	0.03833	0.03647	0.03677	0.03641	0.03709	0.03797	0.03865	0.03896	0.03465	0.0372
3893.575	2568.33	0.04234	0.0428	0.04066	0.04301	0.04378	0.04206	0.04169	0.04114	0.04257	0.04035	0.04009	0.043	0.04047	0.0416	0.03768	0.03767	0.03668	0.03951	0.03738	0.03774	0.03741	0.03821	0.03923	0.03945	0.03985	0.03533	0.03792
3908.039	2558.83	0.04246	0.04302	0.04043	0.04323	0.04417	0.04251	0.04219	0.04163	0.04301	0.0404	0.04049	0.04325	0.04082	0.04165	0.03794	0.03805	0.03701	0.03942	0.03785	0.03763	0.03758	0.03825	0.03913	0.03976	0.04013	0.03608	0.03878
3922.502	2549.39	0.04253	0.04302	0.04109	0.04344	0.04412	0.0427	0.04215	0.04167	0.04325	0.04087	0.04041	0.04375	0.04109	0.04179	0.03841	0.03832	0.03728	0.03978	0.03778	0.03777	0.03768	0.03854	0.03946	0.04003	0.04031	0.03592	0.03859
3936.966	2540.03	0.04351	0.04369	0.04129	0.04399	0.04488	0.04339	0.04328	0.0427	0.04388	0.04136	0.04125	0.04403	0.04158	0.04191	0.03885	0.03888	0.03753	0.04	0.03848	0.03843	0.03843	0.03907	0.03997	0.04072	0.04115	0.03683	0.03957
3951.429	2530.73	0.04536	0.04561	0.04342	0.04597	0.0468	0.04529	0.0449	0.04437	0.04595	0.04337	0.04321	0.04578	0.04356	0.04411	0.04075	0.04055	0.03956	0.0423	0.04052	0.04039	0.04041	0.04103	0.04201	0.04262	0.04308	0.03875	0.04141
3965.893	2521.50	0.04723	0.04745	0.0449	0.04766	0.04863	0.04744	0.04691	0.04638	0.04783	0.04507	0.04516	0.04792	0.04553	0.04556	0.04271	0.04267	0.04139	0.04362	0.04234	0.04208	0.04234	0.04275	0.04364	0.04438	0.04491	0.0408	0.04352
3980.356	2512.34	0.05026	0.0504	0.04784	0.05078	0.05172	0.0503	0.05006	0.04955	0.0509	0.04815	0.04814	0.0509	0.04843	0.0487	0.04563	0.0457	0.04445	0.04672	0.04531	0.04514	0.04527	0.0459	0.04684	0.0476	0.04809	0.04378	0.04656
3994.820	2503.24	0.05721	0.05737	0.05455	0.05761	0.05877	0.05675	0.05636	0.05578	0.05749	0.05469	0.05478	0.05699	0.05478	0.05579	0.05199	0.05219	0.05126	0.05349	0.05196	0.05194	0.05192	0.05252	0.05347	0.05434	0.05475	0.05078	0.05348
3999.641	2500.22	0.05951	0.05989	0.05672	0.06014	0.06129	0.05908	0.0587	0.05817	0.05985	0.05695	0.05705	0.05931	0.05701	0.05808	0.05419	0.05429	0.05368	0.05572	0.05413	0.05431	0.05421	0.05477	0.05578	0.05672	0.0572	0.05313	0.05587